,t,px,py,pz,qw,qx,qy,qz,vx,vy,vz,omex,omey,omez,accx,accy,accz,taux,tauy,tauz,jerkx,jerky,jerkz,snapx,snapy,snapz,bomex,bomey,bomez,baccx,baccy,baccz,mot1,mot2,mot3,mot4,motdex1,motdex2,motdex3,motdex4,f1,f2,f3,f4
1,0.02,-6.466715942159991,3.295334613394439,0.5012823827849551,1.0,1.2165270103623684e-27,5.303110032292305e-28,3.800941958135414e-28,-2.1720445130936155e-25,-3.412265268752862e-26,-0.0978933660317006,-4.141282798647678e-26,2.3232383638905356e-26,-9.193392323964714e-27,1.3889641607433258e-25,1.3886635402090362e-26,-9.773815967833805,0.0,0.0,0.0,0.0,0.0,0.0,0.0,0.0,0.0,0.0,0.0,0.0,0.0,0.0,0.0,0.0,0.0,0.0,0.0,0.0,0.0,0.0,0.0,14.877713933533158,9.999999999999998,9.483980358247054,0.2243518756135922
2,0.03,-6.466715237045978,3.295333581222347,0.5003100832682834,0.9999783206546607,0.005334697689032297,0.0038326779075698804,-0.00045804072745575514,0.0004033078475931135,-0.0005797361113530277,-0.05258776090907063,2.9778069733777306,2.277716529570636,-0.2618503502399778,0.1533278170877889,-0.2156636444363882,13.529803293349788,0.0,0.0,0.0,0.0,0.0,0.0,0.0,0.0,0.0,0.0,0.0,0.0,0.0,0.0,0.0,0.0,2586.2999003325226,1344.6212462504077,1109.8207204424234,0.0,2557.6653135189567,1490.5597618601332,1102.289669034191,14.877713933533158,9.999999999999998,9.483980358247054,0.2243518756135922
3,0.04,-6.466692400836193,3.295303158263178,0.5003632687736185,0.9992938658013476,0.029078184430638903,0.023677569946274367,-0.0023667791311218094,0.005250866871674672,-0.006793875254721141,0.052660211433583244,6.182379342928069,5.3602971733760185,-0.4461616949936477,0.792783679375031,-0.9821891825406783,7.980705131592256,0.0,0.0,0.0,0.0,0.0,0.0,0.0,0.0,0.0,0.0,0.0,0.0,0.0,0.0,0.0,0.0,1945.5903859930083,1419.203952033039,1242.7916428093204,0.0,1819.4504723992823,1416.9649569622063,1265.1644161102336,14.877713933533158,9.999999999999998,9.483980358247054,0.2243518756135922
4,0.05,-6.466585533510796,3.295169308151734,0.5012208947429119,0.9963322015548652,0.06506243816870441,0.05540204740879743,-0.00443130085780128,0.017432881250250203,-0.021461147609785087,0.1137577110680974,8.059976825733923,7.225877602601712,-0.39015401299062735,1.5846115442889572,-1.8813045562672408,4.921899771934441,0.0,0.0,0.0,0.0,0.0,0.0,0.0,0.0,0.0,0.0,0.0,0.0,0.0,0.0,0.0,423.0401721371887,1561.013581620476,1410.3245467577744,1264.8077729086426,676.6189915334279,1466.273909225184,1400.2061512996759,1270.9479068496714,14.877713933533158,9.999999999999998,9.483980358247054,0.2243518756135922
5,0.060000000000000005,-6.466312170489699,3.2948382832261647,0.5025914568805058,0.9896971688977051,0.10780984767826936,0.0940280625243762,-0.00593919837755171,0.03907966667378469,-0.04681357350910033,0.15963818527794332,9.012678292957442,8.25274297907149,-0.28562928309726865,2.670188953290034,-3.1029156652498875,4.399444472304309,0.0,0.0,0.0,0.0,0.0,0.0,0.0,0.0,0.0,0.0,0.0,0.0,0.0,0.0,0.0,863.7273439130074,1381.4024152083553,1370.0816238908126,1280.2215100373255,931.6447755555175,1349.6152819903095,1360.9573110137717,1281.4172173955358,17.641567095504183,4.137537410020631,4.727198953109327,0.41361417821731794
6,0.07,-6.465765530748334,3.29419009547918,0.5043972418495526,0.9786939161552671,0.15365016718833274,0.13602474956177762,-0.006863826215744221,0.07220132271263152,-0.08499531711553301,0.20046040607203386,9.499192851015627,8.811820647756685,-0.1982943078908284,3.840003441568249,-4.404220431539541,3.7794944929983587,0.0,0.0,0.0,0.0,0.0,0.0,0.0,0.0,0.0,0.0,0.0,0.0,0.0,0.0,0.0,1030.2323247336803,1294.148785598288,1340.8420564432113,1283.043808900133,1062.47282944789,1276.517572903817,1333.2742720500346,1283.624700947836,23.52002568308873,5.515278026553114,6.292602804187768,0.19621389858310123
7,0.08,-6.464776714148799,3.2930360554294067,0.5067352296574757,0.9651415078837086,0.19409197345761633,0.1754379641717659,-0.007190015754896039,0.1289231151246025,-0.14942128933431031,0.26933565426764144,6.917931471342105,7.153329978195811,-0.20157948779595855,6.030895520527782,-6.784496772948373,5.92092310865322,0.0,0.0,0.0,0.0,0.0,0.0,0.0,0.0,0.0,0.0,0.0,0.0,0.0,0.0,0.0,1770.3495391861643,539.1209343675916,1380.514832961529,1480.2386223355747,1529.8295719376697,918.9284090733914,1371.2400402422988,1505.7548639543118,26.330762545562582,5.29741023166632,6.1042571066420965,0.18368647631312346
8,0.09,-6.463129236517681,3.2911424771137607,0.5097897689533096,0.9516140670236698,0.22572043223259267,0.2084039847706062,-0.006980905896441441,0.20582183564359186,-0.23483022090313296,0.3473002710490132,6.3099538812044855,6.792650917228292,-0.10891097794512146,8.913221391065317,-9.811922966076969,8.808114206459495,0.0,0.0,0.0,0.0,0.0,0.0,0.0,0.0,0.0,0.0,0.0,0.0,0.0,0.0,0.0,1628.512288987826,1361.536123871576,1622.6873036808197,1567.1288548106404,1668.3091539587563,1364.975033455811,1605.7773361841253,1597.10643461076,27.622787501828423,4.307093422711272,5.397792621343584,0.24762641265188615
9,0.09999999999999999,-6.460564246909388,3.288241211115499,0.5137503175246918,0.9370047106696857,0.2542306072073952,0.2394805968443724,-0.006165571898931502,0.31118467989005383,-0.34936993263078286,0.4459933092987104,5.797580595890752,6.456940436333942,-0.05593374530181701,11.46667648581845,-12.350108667807724,9.877444991999774,0.0,0.0,0.0,0.0,0.0,0.0,0.0,0.0,0.0,0.0,0.0,0.0,0.0,0.0,0.0,1677.6495797532816,1555.305892654339,1685.136331035693,1673.7463664413926,1675.7496025105104,1573.1208667660082,1691.0929017103113,1673.7006576962376,28.895670052151075,3.136934616921052,4.367940317912998,0.30635760992899896
10,0.10999999999999999,-6.456838052778401,3.284091322072914,0.5187029706715424,0.9219720564345378,0.27932966115433366,0.26817711233704,-0.004848089504250777,0.4370397321963015,-0.48329368070006046,0.5434947054394014,5.02080067749112,5.954771630279589,-0.0056638805373544505,13.307885067111002,-14.022805962192407,9.343516142840791,0.0,0.0,0.0,0.0,0.0,0.0,0.0,0.0,0.0,0.0,0.0,0.0,0.0,0.0,0.0,1740.0406752351741,1573.9943271542313,1717.1964485169112,1727.6954461591665,1713.642231692218,1613.7033701555042,1719.9136050446537,1726.9080174024161,30.250959986408215,1.8124276946668583,3.1475550045542553,0.3429891778269236
11,0.11999999999999998,-6.451764344042033,3.278523778103307,0.5245983243376355,0.9076409083214729,0.30003467258744876,0.29352724609244063,-0.0029887435657550794,0.5805009622323779,-0.6325515136068576,0.634414424692144,4.047402919213692,5.206195184130637,0.04750241479153978,15.013292391007681,-15.459170410348943,8.678118064795015,0.0,0.0,0.0,0.0,0.0,0.0,0.0,0.0,0.0,0.0,0.0,0.0,0.0,0.0,0.0,1808.4338917470868,1576.999427564333,1745.9482428383083,1776.5421832311802,1770.1743420047549,1633.1440851452128,1749.918618499843,1774.001546252116,31.131537847005568,1.1174276410838657,2.2144086979345485,0.2869531884283637
12,0.12999999999999998,-6.445171925531935,3.2713948834834548,0.5313711413688635,0.89521558684608,0.31563496645228506,0.31458424759504355,-0.0006100701218667685,0.7406458899092588,-0.7952763778176909,0.7192542190297481,2.8959477702536254,4.2386792123653345,0.10020973907541474,16.632083610066626,-16.717407705200916,8.151860410478772,0.0,0.0,0.0,0.0,0.0,0.0,0.0,0.0,0.0,0.0,0.0,0.0,0.0,0.0,0.0,1875.701284563235,1589.021296661334,1774.4497224265103,1823.3815143223612,1830.4672640692083,1656.5986484320604,1780.6540894585355,1818.6855816152467,31.09487005056428,0.15071163966633738,1.0356109923513688,0.31905246983772917
13,0.13999999999999999,-6.436904238684065,3.2625844471344765,0.5389643518794476,0.8852865776355978,0.3265710486158268,0.33108131693731224,0.002046274484291371,0.9148738128887286,-0.968104455411005,0.7983765159017995,1.9992617930572305,3.2984315743947796,0.13686406868346132,17.87933668096675,-17.553593468996652,7.586348953052213,0.0,0.0,0.0,0.0,0.0,0.0,0.0,0.0,0.0,0.0,0.0,0.0,0.0,0.0,0.0,1906.805038392674,1637.84691062808,1783.222803233232,1846.17880021839,1867.7690715295862,1691.89917516133,1790.6160655368044,1838.9894755975622,30.34321372183006,-1.0319260584720218,-0.19492417606874923,0.3274808688214247
14,0.15,-6.426852184777671,3.252023973600417,0.5473088108254047,0.878210489727257,0.33333048052020425,0.34294977101663515,0.004751952106108053,1.0964350000627903,-1.144236060251486,0.8692711304790754,1.0529117908958499,2.238652930550558,0.16913081522253062,18.383903416366643,-17.667296461159943,6.774657656614336,0.0,0.0,0.0,0.0,0.0,0.0,0.0,0.0,0.0,0.0,0.0,0.0,0.0,0.0,0.0,1912.6696772679757,1631.2274356219036,1773.3805979785889,1855.0184834598647,1869.9769042333255,1687.2519890179663,1784.622242759658,1842.6943703965699,29.64679033575932,-1.6927796924780734,-1.0743270962198992,0.3407889467788184
15,0.16,-6.414977066864395,3.239712912899159,0.5563167100676827,0.8745752438454822,0.3356598501694466,0.3498490010542594,0.007502286196668175,1.2785281324205218,-1.3173521517811064,0.9311846598740702,-0.020054247183228756,1.0995187710149366,0.1997896564694263,18.232584126258498,-17.182332899921658,5.960417989857025,0.0,0.0,0.0,0.0,0.0,0.0,0.0,0.0,0.0,0.0,0.0,0.0,0.0,0.0,0.0,1905.4980476593335,1597.056274114003,1747.4231583799701,1834.8446768454069,1857.961088393275,1659.1734298599617,1757.10529495716,1821.9013296929827,28.21258885370755,-2.179507600003256,-1.8238895091725347,0.3604742631660561
16,0.17,-6.401290057965596,3.225695459371638,0.5659132148343904,0.8743612339470581,0.33393575555955307,0.35195861816000157,0.010221293086037794,1.4584547897742248,-1.4852592285089363,0.9875935770807648,-0.8644531837639282,0.091090846692754,0.2249016449341846,17.917688117757624,-16.592141174613495,5.5629247618221855,0.0,0.0,0.0,0.0,0.0,0.0,0.0,0.0,0.0,0.0,0.0,0.0,0.0,0.0,0.0,1875.3286023749258,1594.4958178423392,1727.3230766218064,1811.3531753158509,1834.167595283963,1644.8147581875446,1735.447318628253,1800.2220839360405,25.7813909288046,-2.529676893251855,-2.306801393292601,0.3818539963585684
17,0.18000000000000002,-6.385835772510597,3.2100421621322583,0.5760491630377529,0.8770393750453654,0.3290185279684172,0.34983632981178364,0.012778310426342154,1.6310375020242098,-1.643767323452681,1.03899757924897,-1.5265173442872437,-0.7983194112350169,0.2477674470864599,16.98515957605151,-15.502499290813043,5.084341142170379,0.0,0.0,0.0,0.0,0.0,0.0,0.0,0.0,0.0,0.0,0.0,0.0,0.0,0.0,0.0,1817.2674008263266,1572.8401673820333,1685.678959055758,1768.8971505360296,1781.6621112382093,1612.3822385777353,1693.8599333379757,1755.7918510580912,26.422948116203997,-2.758544278871501,-2.690733373952431,0.3953307664741347
18,0.19000000000000003,-6.368722768595884,3.192875188488759,0.5866637773310969,0.8819778787935417,0.3216324855226934,0.34414865752439716,0.015141568594241586,1.7890892331101969,-1.787121589736826,1.0828445619729614,-2.030593949386003,-1.495840381301533,0.26966153707979823,15.311256529536577,-13.82125678251267,4.260014340442986,0.0,0.0,0.0,0.0,0.0,0.0,0.0,0.0,0.0,0.0,0.0,0.0,0.0,0.0,0.0,1723.0374598756093,1522.0276993135599,1618.4602262560566,1689.751250999526,1693.3198266719367,1549.826595200862,1622.6028831262477,1677.3323691256926,28.477612777271545,-2.8277201575812327,-2.9964573947476776,0.41038103867595177
19,0.20000000000000004,-6.350063665644862,3.1743127607440074,0.5977237579596932,0.8885279735625954,0.3123931042587962,0.33560119972235725,0.017332724921814032,1.9426395122875748,-1.9251090666705408,1.1306028717492977,-2.39475876655352,-2.0492140042699227,0.2901821626355972,15.284847708320726,-13.691994299893873,5.141351092298407,0.0,0.0,0.0,0.0,0.0,0.0,0.0,0.0,0.0,0.0,0.0,0.0,0.0,0.0,0.0,1717.8891665105173,1563.7570091277003,1639.5579013038155,1698.3597387146247,1698.1723522410055,1588.834295402489,1647.0840332897826,1691.4966202554826,28.15076394129752,-2.7245663128615387,-3.1780251077588,0.4299027901238005
20,0.21000000000000005,-6.32984658400842,3.1543547759992396,0.6093338852789246,0.8961222678879185,0.3019001119720215,0.324727954023743,0.01931215322661792,2.1017596207066154,-2.067276445561974,1.1944061214256776,-2.607473100518727,-2.4881605494506145,0.30953022872838054,16.02231351356087,-14.29483627162087,7.0516810051031165,0.0,0.0,0.0,0.0,0.0,0.0,0.0,0.0,0.0,0.0,0.0,0.0,0.0,0.0,0.0,1759.3471260146773,1648.4334907467437,1703.214836843499,1754.6709913756745,1747.9315434393495,1668.3265862379726,1713.1005449829606,1750.1210254031962,27.846166977414114,-2.5255056669509397,-3.246970766706938,0.44689981562220543
21,0.22000000000000006,-6.308041312541052,3.132979380319104,0.6216430438349798,0.9042263624658201,0.2908168129765174,0.312024000855407,0.021006894158768424,2.258169148407479,-2.2068294110158106,1.2686190221669689,-2.6582000118221254,-2.8070045408022097,0.3285591994301545,15.346678524988722,-13.70597520705008,7.760952660656573,0.0,0.0,0.0,0.0,0.0,0.0,0.0,0.0,0.0,0.0,0.0,0.0,0.0,0.0,0.0,1733.9830119658711,1661.99368029653,1698.998890301882,1746.089496061583,1725.8726430062914,1670.8203897730045,1705.3434390240318,1738.3592926439987,28.1070168493212,-2.2504568991884275,-3.2404533515611447,0.46175988893168146
22,0.23000000000000007,-6.284709329320243,3.1102395947911248,0.6347276961452424,0.912371782168381,0.27975933609137277,0.29801284834391123,0.022378275057644385,2.4069023545963497,-2.340109170375139,1.3494168964910194,-2.5830028470721786,-3.009700487599836,0.34737556003607023,14.532354491818111,-13.072961256816118,8.400662008358317,0.0,0.0,0.0,0.0,0.0,0.0,0.0,0.0,0.0,0.0,0.0,0.0,0.0,0.0,0.0,1707.2114848059553,1671.3724257998547,1692.8282706792022,1733.7680491189835,1704.8585784266857,1673.877851362266,1698.417646037269,1726.4801658151991,28.330090696446263,-1.9309205783139638,-3.1511241331115305,0.4725191747605926
23,0.24000000000000007,-6.259923469861256,3.0861906371723937,0.6486618927037023,0.9202039255948965,0.2692286279050298,0.283182179156331,0.023420816475709563,2.549266902381773,-2.4690885796709914,1.439000031543912,-2.407050968138061,-3.115690361420628,0.3656967845804644,13.946319596460643,-12.725455033464783,9.362573580413924,0.0,0.0,0.0,0.0,0.0,0.0,0.0,0.0,0.0,0.0,0.0,0.0,0.0,0.0,0.0,1699.6715684584294,1694.2012811430122,1702.6439175049884,1737.3635042882402,1702.8555456919232,1692.8163584849906,1708.5224775918955,1731.4128440900165,28.38897897810791,-1.5472320409720968,-3.0029778038761354,0.48099650633906904
24,0.25000000000000006,-6.233744571149384,3.060868821219286,0.6635393103985298,0.9274725899901299,0.25961483582301875,0.26797630898968783,0.024154288601623348,2.6854112495734035,-2.594728673043276,1.5379781795039509,-2.159153886093368,-3.1307439821526333,0.38305439242025074,13.300309263473586,-12.40638771354341,10.278238317527943,0.0,0.0,0.0,0.0,0.0,0.0,0.0,0.0,0.0,0.0,0.0,0.0,0.0,0.0,0.0,1694.4497485975216,1714.4759685588788,1712.5408933352144,1739.5116539915296,1701.6470700999482,1709.1799065533576,1717.283575610152,1734.6293080845771,28.384725714500203,-1.1282500392365393,-2.8128472024309237,0.48888097332865155
25,0.26000000000000006,-6.206239646916191,3.034307885828323,0.6794478421398562,0.9340012485295052,0.2512513936412367,0.25280213181548783,0.024606647236194937,2.8143083555771478,-2.7168919110794296,1.644942705842368,-1.8420841765788674,-3.0701513169082837,0.39913889533818864,12.54331195310332,-12.063633628838222,11.013197669671682,0.0,0.0,0.0,0.0,0.0,0.0,0.0,0.0,0.0,0.0,0.0,0.0,0.0,0.0,0.0,1686.3863068755832,1728.0915324875175,1716.7905883109975,1737.5357177049316,1696.7910853365684,1719.3109659908382,1720.6188582446803,1733.1234377628437,28.357288935448906,-0.704632066078695,-2.57925093262698,0.4958425020243425
26,0.2700000000000001,-6.177484806549128,3.0065421747224907,0.6964596166956716,0.9396788094682883,0.244425336580066,0.23800158959811304,0.02480389531411112,2.9353417958856776,-2.835753994944995,1.7584060825773258,-1.4737968805762347,-2.9495138401475813,0.41394666254156004,11.748166101398283,-11.75718261741121,11.608773511154968,0.0,0.0,0.0,0.0,0.0,0.0,0.0,0.0,0.0,0.0,0.0,0.0,0.0,0.0,0.0,1678.3782085409105,1737.3469003854934,1718.3866487825546,1734.264515728454,1691.3679494664832,1725.9715463472799,1721.645880936696,1730.271839512386,28.278276208239138,-0.2929849335978861,-2.3201048793560597,0.49965784329832563
27,0.2800000000000001,-6.147559506016616,2.977602021838859,0.714633360765517,0.9444532405627688,0.23932967761356033,0.22386377139027927,0.02478696558264616,3.0484133369615356,-2.9518970571565193,1.877145388495651,-1.078465365357209,-2.7761845233104716,0.4275341373553547,10.958027019978722,-11.518627704213635,12.086756862720094,0.0,0.0,0.0,0.0,0.0,0.0,0.0,0.0,0.0,0.0,0.0,0.0,0.0,0.0,0.0,1671.5342212397686,1743.8509529834473,1719.64576581598,1729.8895776316012,1686.5098729906476,1730.580523160596,1722.0069909926658,1726.7519538476947,28.155631458179673,0.08031265353453876,-2.0301743130727963,0.4996799012076195
28,0.2900000000000001,-6.116543003622485,2.9475113782884734,0.7340153195065774,0.9483182992110951,0.23605627007351343,0.210627976210994,0.024610899569445847,3.1536111536155773,-3.0659618461319154,1.999822779334227,-0.6758359823757881,-2.563039615743865,0.4396675906678664,10.182028933834797,-11.34324781094831,12.424338253516964,0.0,0.0,0.0,0.0,0.0,0.0,0.0,0.0,0.0,0.0,0.0,0.0,0.0,0.0,0.0,1665.6038795550155,1746.867312601838,1719.2301085017996,1723.7629173197263,1681.6456266064135,1732.4633064130974,1720.6127012873528,1721.4805999474233,28.008948721425064,0.4419145847702083,-1.7244572165223035,0.4979518366226331
29,0.3000000000000001,-6.084512875000719,2.916287749090317,0.7546379830423333,0.9513022372989075,0.23459130711222068,0.19849032364372576,0.024342624289132687,3.251200701680619,-3.178606886813766,2.1250686218428205,-0.2893847805945486,-2.313916543950877,0.44998411502369257,9.440839664731637,-11.233728275607202,12.627031419825574,0.0,0.0,0.0,0.0,0.0,0.0,0.0,0.0,0.0,0.0,0.0,0.0,0.0,0.0,0.0,1660.284090827719,1747.1643926831837,1718.0048969988886,1715.3015355879443,1676.8457049158026,1732.1019311899936,1717.9870862069192,1714.3282301769734,27.825204222279826,0.7775798552300806,-1.4228101193652143,0.4971747978328521
30,0.3100000000000001,-6.051542945960718,2.883941892954019,0.7765207621332341,0.9534444690697574,0.23487732104576384,0.18761139595679938,0.024046882662727594,3.3416679801887765,-3.2905262874748544,2.251656915288649,0.08438660950703489,-2.038480182068353,0.4583924171845012,8.756265872216673,-11.194433659517333,12.713174769544366,0.0,0.0,0.0,0.0,0.0,0.0,0.0,0.0,0.0,0.0,0.0,0.0,0.0,0.0,0.0,1655.2088924835389,1745.708270730328,1715.4551437935622,1706.6015435517577,1672.04435339165,1730.2500703124579,1714.440628015296,1706.6397256767482,27.61520648073979,1.0707422584200492,-1.1156935611843712,0.49741636584415916
31,0.3200000000000001,-6.017701496191459,2.8504777650355053,0.7996711176156546,0.95479033076809,0.2368411032549285,0.17809115670135242,0.023775112734206762,3.4256107740639763,-3.4023644461878813,2.3783898187069856,0.4382636578441198,-1.7510543584251845,0.4651919645447065,8.134056528881217,-11.215825060178375,12.679383066297234,0.0,0.0,0.0,0.0,0.0,0.0,0.0,0.0,0.0,0.0,0.0,0.0,0.0,0.0,0.0,1650.2489796120126,1741.4264941958402,1711.0984780018093,1698.022537452833,1666.7546724185595,1726.041408471894,1709.475766583826,1698.66295092104,27.385202143150803,1.3212095430042998,-0.814261583851315,0.49548285000103875
32,0.3300000000000001,-5.983050422153687,2.8158931655795794,0.8240848480812409,0.9553928130356673,0.24036211679017938,0.16998454817509331,0.023577086199280627,3.503713682628966,-3.5147164173364254,2.504160669417771,0.7604202909466881,-1.454208313481236,0.47080279692361754,7.583725369745942,-11.294064257825642,12.540169363688403,0.0,0.0,0.0,0.0,0.0,0.0,0.0,0.0,0.0,0.0,0.0,0.0,0.0,0.0,0.0,1645.125401728861,1735.1645479931626,1706.3421850432292,1688.686939049416,1661.0854464007114,1720.0818352396798,1703.829486043223,1690.22192615618,27.126517420915278,1.5082464570772058,-0.5119857765796665,0.4912050858279957
33,0.34000000000000014,-5.947644383118969,2.780180233850298,0.849747370271086,0.9553079145796317,0.24527805821600096,0.16331900159153653,0.023502472602826348,3.576732989921806,-3.6281131128643223,2.6279973983718454,1.0455398362429837,-1.1552458920179944,0.4752246528080184,7.110803291962231,-11.42138492368705,12.308630233473394,0.0,0.0,0.0,0.0,0.0,0.0,0.0,0.0,0.0,0.0,0.0,0.0,0.0,0.0,0.0,1640.4537770072934,1727.4209271092373,1700.658067518226,1678.7648438559531,1655.5134412064078,1713.001715993815,1697.3362598345643,1681.1080322979028,26.88154436285153,1.655233555460946,-0.21135734140132717,0.48529091441537087
34,0.35000000000000014,-5.911530393850737,2.743326418951511,0.876634706976128,0.9545980286789563,0.2513755598481422,0.15810092986199573,0.023601430678164698,3.6454313004437116,-3.742947414108037,2.74897806815384,1.2797774278838643,-0.8545201343061676,0.47827746503204616,6.713989480019222,-11.580790736954505,11.987136243066132,0.0,0.0,0.0,0.0,0.0,0.0,0.0,0.0,0.0,0.0,0.0,0.0,0.0,0.0,0.0,1635.7724928256855,1718.1743747513165,1694.4920914807733,1667.2456290432558,1649.668211821411,1704.6161805184388,1690.0385880306264,1670.7197683017878,26.630341749850047,1.7676610300729976,0.06301191228640934,0.4812287526254366
35,0.36000000000000015,-5.874747501978116,2.705315504161159,0.9047149065827845,0.9533233742621002,0.25842706739031046,0.15433001863256132,0.023921544148338702,3.7106592706770214,-3.859592110469717,2.866487063557246,1.4695730450660347,-0.5537392859773729,0.479899881268764,6.4055608790010155,-11.77669064650333,11.616793856233265,0.0,0.0,0.0,0.0,0.0,0.0,0.0,0.0,0.0,0.0,0.0,0.0,0.0,0.0,0.0,1631.545064670338,1709.1765415135567,1688.474043428045,1656.1417564013066,1644.4003629528784,1696.4970817666826,1683.0949007364472,1660.684932652958,26.383018699027996,1.8356368800882144,0.3292275893764907,0.4790368886299703
36,0.37000000000000016,-5.837326176981314,2.6661280120384125,0.933950596337012,0.9515390758047376,0.2662298271135911,0.15197056886174487,0.024495154042603082,3.7732509533005416,-3.978290447478013,2.9799856741421435,1.619970594649915,-0.26562409485978145,0.48045242544909,6.177589154365393,-11.989552231131295,11.192201925767087,0.0,0.0,0.0,0.0,0.0,0.0,0.0,0.0,0.0,0.0,0.0,0.0,0.0,0.0,0.0,1627.5690345699825,1698.8962221325546,1681.3226904565192,1646.4521520780368,1639.0048658029532,1687.3814151700706,1675.6283376230554,1651.3953371268642,26.1432975597332,1.8761687275250956,0.5806158316159917,0.47409968972947725
37,0.38000000000000017,-5.799288790720215,2.625742664200052,0.9642992942084834,0.9493004509271544,0.2745847132620973,0.1509615226555192,0.025347737370430324,3.8340011255776734,-4.099178683428917,3.089021937385999,1.728000745905706,0.012552343106888682,0.4804140075350492,6.027979678261186,-12.212237259169534,10.727868475164826,0.0,0.0,0.0,0.0,0.0,0.0,0.0,0.0,0.0,0.0,0.0,0.0,0.0,0.0,0.0,1623.3529304310666,1688.3702541991495,1674.6234247794987,1637.0415857298397,1633.5556234597875,1677.9131590569586,1668.367782429636,1642.6462883008558,25.896841255674573,1.8683598331295035,0.8174573075881604,0.4666406175855872
38,0.3900000000000002,-5.760649896535607,2.5841372128382973,0.9957146294062038,0.9466574257429505,0.28330795910766476,0.15124144709047568,0.02650175982758408,3.8936761547258762,-4.222313290188451,3.1932625087321007,1.801775199033294,0.27821139538555634,0.47968577526619516,5.9532652421045995,-12.43687921158454,10.234036233628618,0.0,0.0,0.0,0.0,0.0,0.0,0.0,0.0,0.0,0.0,0.0,0.0,0.0,0.0,0.0,1619.436292870085,1678.3638789389636,1667.483785995705,1628.024631911415,1628.4917002603718,1668.9548401130987,1660.8710895137383,1634.0472246577929,25.69740014199389,1.8199665979162194,1.0481839996530948,0.4566950459959756
39,0.4000000000000002,-5.721416722917941,2.5412894741726766,1.0281469900732834,0.9436630930582031,0.29221160633283516,0.15274066847707465,0.027975562860928088,3.9529662724917993,-4.347611844838981,3.2923727451125098,1.833411762256223,0.5304445518718794,0.4779580163551434,5.944255972659462,-12.646894358450567,9.707124114846977,0.0,0.0,0.0,0.0,0.0,0.0,0.0,0.0,0.0,0.0,0.0,0.0,0.0,0.0,0.0,1615.8191441235833,1668.0052566047639,1660.0344284879784,1618.4535899336493,1623.5246471685002,1659.7780969085716,1652.9506065445769,1624.999097952409,25.51104938249263,1.7457629271209971,1.2464429787721656,0.4486157098502583
40,0.4100000000000002,-5.6815894994076865,2.497177951570996,1.0615446852789314,0.940375603560216,0.3010957469285868,0.15539522995992208,0.029789224830108513,4.012610316206031,-4.475070319732125,3.3863442760347677,1.8240829903939508,0.7727893553866171,0.47498675005086644,6.011422203308747,-12.859837669341623,9.19309727906148,0.0,0.0,0.0,0.0,0.0,0.0,0.0,0.0,0.0,0.0,0.0,0.0,0.0,0.0,0.0,1613.5438206319607,1659.3519376823972,1654.1388263865742,1609.7384992142415,1620.1044742344168,1652.273482621837,1646.498295193223,1617.0857786923514,25.312164464872275,1.6185362512217485,1.4473397102760814,0.44446914976452134
41,0.4200000000000002,-5.641161210909913,2.4517814816775694,1.095856445612106,0.936852337947798,0.3097845876230026,0.15912329072315273,0.031952848111334524,4.07328134920692,-4.604565693391217,3.4751764190506327,1.7819039021779781,0.9941037865335284,0.4710734916640488,6.140860393732517,-13.05283238013999,8.675376444138294,0.0,0.0,0.0,0.0,0.0,0.0,0.0,0.0,0.0,0.0,0.0,0.0,0.0,0.0,0.0,1611.9331507501433,1650.27258692854,1647.859804453055,1602.9828268400904,1616.9961368339243,1644.5758505977963,1640.2645370716355,1610.4166670407724,25.124979231922126,1.4967916724929333,1.6359605283528462,0.4372806065827816
42,0.4300000000000002,-5.6001188511578155,2.405081280161263,1.131030206925606,0.93315794492263,0.3180920078683495,0.16384362616933604,0.034481741860564935,4.13550646780541,-4.735746800109452,3.5587195010854664,1.6957056993441197,1.2063506615835073,0.46688041856082096,6.3188378580871785,-13.203061893634072,8.141004532888907,0.0,0.0,0.0,0.0,0.0,0.0,0.0,0.0,0.0,0.0,0.0,0.0,0.0,0.0,0.0,1608.9293398183368,1640.7559725225012,1642.8375584301125,1595.168110267819,1612.8167416537335,1636.0823555480135,1634.513096512795,1603.4264734024252,24.940798739103695,1.361386045234531,1.7997093802597983,0.4267544788167087
43,0.4400000000000002,-5.558444314964087,2.3570623910381525,1.167012885144456,0.9293406483161616,0.32588045146954125,0.16949835094890064,0.037392509449193916,4.199801905877616,-4.86824207714838,3.636967163857772,1.5924677904769604,1.4073686301939108,0.4623461115637104,6.548454047147878,-13.31729188554931,7.612350755932251,0.0,0.0,0.0,0.0,0.0,0.0,0.0,0.0,0.0,0.0,0.0,0.0,0.0,0.0,0.0,1605.5847223675573,1632.7586571876457,1636.9572109858977,1588.3271119410922,1608.741687475045,1628.828744364853,1628.5205700080774,1596.7280499402468,24.817347915887833,1.1798917793424057,1.9640748044631922,0.4128751325125666
44,0.45000000000000023,-5.516114475534393,2.3077136421331175,1.2037517208207973,0.925435060250591,0.3330686306064419,0.17601153948873777,0.040683836246587037,4.266640410534032,-5.001646861061611,3.709956585537939,1.4728225361007765,1.590663937299669,0.4570129673863743,6.822328269037392,-13.388677753600753,7.087681710836957,0.0,0.0,0.0,0.0,0.0,0.0,0.0,0.0,0.0,0.0,0.0,0.0,0.0,0.0,0.0,1602.825529312318,1624.9923540144853,1629.8698224431619,1582.2471466003872,1605.0780317740357,1621.9348612343078,1621.7295945042697,1590.3603957500065,24.709514556791593,0.9740910920675931,2.1042017873555965,0.4012359991482803
45,0.46000000000000024,-5.473101249235575,2.257027210299774,1.241195493321735,0.921489069530582,0.33953893035590593,0.1833119615272678,0.04436140517899685,4.33657474664442,-5.135748991863098,3.778024629951658,1.3207540183312148,1.7654053184740333,0.45043089050944596,7.155349230533403,-13.445956952345739,6.609453823150702,0.0,0.0,0.0,0.0,0.0,0.0,0.0,0.0,0.0,0.0,0.0,0.0,0.0,0.0,0.0,1602.1423040084167,1619.3900068811702,1625.5676052071735,1576.4596323757605,1603.5893786188465,1617.2649883817814,1617.042043528516,1585.2511446774063,24.566546375574934,0.7226955261228943,2.25667781750577,0.39364986343205405
46,0.47000000000000025,-5.4293711406239575,2.204997568634402,1.2792965967670171,0.9175591950815586,0.34515526101480004,0.19132948666582536,0.04843549160769969,4.410086405027061,-5.27021658692463,3.841458278591722,1.1413843456310366,1.923521107780895,0.4429002339506454,7.5309796414702035,-13.461502480794252,6.154228622529345,0.0,0.0,0.0,0.0,0.0,0.0,0.0,0.0,0.0,0.0,0.0,0.0,0.0,0.0,0.0,1602.2211505766945,1613.4046391412019,1621.7358190588272,1572.1090136147845,1602.4310137420878,1612.4801362061464,1613.1718719205928,1581.0981128654917,24.428227959681806,0.510001244547373,2.401231921384256,0.3822439942653882
47,0.48000000000000026,-5.384886905331119,2.15162416251066,1.3180088973993598,0.9137066586898328,0.3497657444210297,0.20000628873237666,0.05292967374701755,4.4874362672644885,-5.404376128177825,3.9002602986459736,0.9247627255070535,2.0794314366417117,0.4351012887956216,7.926275139839234,-13.398855320057912,5.6930644567319,0.0,0.0,0.0,0.0,0.0,0.0,0.0,0.0,0.0,0.0,0.0,0.0,0.0,0.0,0.0,1599.98488874991,1606.5110870734034,1618.7904918547997,1565.718013831027,1599.3535492186825,1606.2605703859515,1609.3537307037038,1575.6350009211483,24.29216554798849,0.317831541166191,2.512243721461673,0.36776426334933066
48,0.49000000000000027,-5.339608803065014,2.096913388128954,1.3572866517877973,0.9099548872316963,0.35330249056669566,0.20931188766304826,0.05786179262218155,4.568910667466075,-5.537591738715632,3.9545837525325234,0.7119653028735741,2.229683584743863,0.42690325765147924,8.35241469464787,-13.27772164312968,5.253993253009348,0.0,0.0,0.0,0.0,0.0,0.0,0.0,0.0,0.0,0.0,0.0,0.0,0.0,0.0,0.0,1596.7421848159152,1601.554473029724,1614.000522909299,1560.7063948031403,1595.9746861379242,1601.4526269351409,1604.711751730115,1570.4377609731869,24.227383472938474,0.06571862302489095,2.635170592965982,0.34909033111314264
49,0.5000000000000002,-5.293494129185095,2.040877592297349,1.3970861360050575,0.9062955583328287,0.35579712804944924,0.21918271330787611,0.06321157176457097,4.6547930763758405,-5.669284901175859,4.004638739900873,0.510092044655421,2.3609814981379027,0.41786430423187365,8.804495008996938,-13.099753556751637,4.835475692393398,0.0,0.0,0.0,0.0,0.0,0.0,0.0,0.0,0.0,0.0,0.0,0.0,0.0,0.0,0.0,1594.1262345032349,1596.6759213964806,1606.9132915387913,1557.6072585325178,1592.97857682588,1596.9392617512358,1598.6587028615681,1566.2384718345245,24.174346461748026,-0.20699554510998464,2.756661590107355,0.33380451952443163
50,0.5100000000000002,-5.246496807697608,1.9835337052521695,1.4373668444120744,0.9027474707989945,0.3572025388630327,0.22955526553658442,0.06897630216422436,4.7455215339836085,-5.79917276513363,4.050926799115661,0.2807304400768965,2.488896149955592,0.40742482110953415,9.30770230709399,-12.903714636181896,4.480013165677477,0.0,0.0,0.0,0.0,0.0,0.0,0.0,0.0,0.0,0.0,0.0,0.0,0.0,0.0,0.0,1594.3741535576303,1594.0509666260207,1604.0771719857657,1553.7835320131242,1592.7974559547442,1594.9358994767786,1595.413947319867,1563.1739846593325,24.062172885160116,-0.5015070466822947,2.906101553410147,0.3232254261912283
51,0.5200000000000002,-5.1985664385159565,1.924901667476917,1.478093362678731,0.8993429198908707,0.35740676037752794,0.24039625380011478,0.07518218696921715,4.8414489018462294,-5.92682230566158,4.093852412594522,0.02935772341468823,2.6135883206742454,0.39598789474449075,9.839315879090371,-12.653412028667432,4.156685533166282,0.0,0.0,0.0,0.0,0.0,0.0,0.0,0.0,0.0,0.0,0.0,0.0,0.0,0.0,0.0,1594.6794932026435,1591.2810182385047,1602.865898274716,1550.320179054335,1592.4199573957108,1592.809132392892,1593.7266529977478,1560.3948336926458,23.935215951975593,-0.7510360607023001,3.0632387257432367,0.3087836534601118
52,0.5300000000000002,-5.149650639930837,1.8650079079313262,1.5192324269179043,0.8960977586692777,0.35630137398759676,0.2517041389730003,0.08187285402566953,4.942602098980403,-6.05135520070797,4.1334280513716255,-0.24399947953792134,2.7502001038111223,0.38437488532541664,10.363984836506468,-12.301775775479307,3.8238585369247957,0.0,0.0,0.0,0.0,0.0,0.0,0.0,0.0,0.0,0.0,0.0,0.0,0.0,0.0,0.0,1591.2892429660694,1587.3399897400782,1601.6992518743173,1544.3160727575435,1588.927206274824,1588.7209728202681,1591.5048969460613,1555.4433904217221,23.812254219780293,-0.9543072810923698,3.1713383685794105,0.2911680356644982
53,0.5400000000000003,-5.099696970245426,1.803887986406188,1.5607508321518535,0.8929773365876387,0.35386359436203413,0.26350830998727964,0.08908088175179132,5.049041570441799,-6.1719242532459315,4.169744211420826,-0.5035611452184917,2.896025733386786,0.3724708366930683,10.898846440635879,-11.871266993968455,3.5050208396523175,0.0,0.0,0.0,0.0,0.0,0.0,0.0,0.0,0.0,0.0,0.0,0.0,0.0,0.0,0.0,1586.2573763824485,1584.747919206011,1598.1351338869092,1538.9193542606486,1584.4479076512523,1585.5169455893565,1587.8531839321788,1550.0424777915546,23.774038913604254,-1.2341072422818449,3.3020294977555253,0.2683471486419096
54,0.5500000000000003,-5.048651808782059,1.7415850889863078,1.602616944812938,0.8899175509993643,0.35018282639890536,0.27577701920777264,0.09677694041166895,5.160925468650702,-6.287842469266204,4.203001538425151,-0.7335908628311458,3.023044525130947,0.3598406620199484,11.449720822503728,-11.377037010315227,3.2071021858790516,0.0,0.0,0.0,0.0,0.0,0.0,0.0,0.0,0.0,0.0,0.0,0.0,0.0,0.0,0.0,1582.833664190254,1581.3501800977797,1590.7520132520367,1537.0659812006497,1580.9007827299451,1582.2341184269405,1582.031656839529,1546.4816370694643,23.776271770325728,-1.4664457655000231,3.44940191530682,0.24607082363292038
55,0.5600000000000003,-4.9964588548005375,1.6781476826430775,1.6448023879564106,0.8868982151970353,0.3452412234247426,0.2884523508217068,0.10495377474836826,5.278686117455345,-6.398781120379294,4.233710454412031,-0.9917049882723202,3.1526262774940337,0.3457490192410456,12.055513036727916,-10.860685182017882,2.9734770056899507,0.0,0.0,0.0,0.0,0.0,0.0,0.0,0.0,0.0,0.0,0.0,0.0,0.0,0.0,0.0,1583.2497839186435,1580.350474456638,1588.8580948236552,1533.7939052303032,1581.137967611967,1581.6621534356364,1579.5787092934415,1544.1945645383219,23.70881933610519,-1.6445150878483101,3.6654286824230713,0.2297287809423773
56,0.5700000000000003,-4.943057012173025,1.6136273431943133,1.6872843340034622,0.8838778334337983,0.3390070971642821,0.3015350485132226,0.11362560518980892,5.402760077255376,-6.50434291424306,4.262361630429174,-1.2348383383503556,3.2905217792280523,0.3302625898321024,12.699133223974535,-10.29664745135861,2.7801515043366365,0.0,0.0,0.0,0.0,0.0,0.0,0.0,0.0,0.0,0.0,0.0,0.0,0.0,0.0,0.0,1583.1116637797065,1582.304113771552,1588.5424365327247,1532.2986936122409,1581.534092882735,1583.1053630794222,1579.1197313155817,1543.0795300937698,23.595877924785,-1.894827686810158,3.879618624756108,0.21109606396482172
57,0.5800000000000003,-4.888383144528726,1.548081944104347,1.7300422063812326,0.8807331647847658,0.33156031338943437,0.3151158915244957,0.12279587103006773,5.5330551600116324,-6.603624364997997,4.288848069686891,-1.443717228036549,3.4657914870115962,0.31427860646722744,13.316548785262228,-9.627284668940028,2.5545832710252014,0.0,0.0,0.0,0.0,0.0,0.0,0.0,0.0,0.0,0.0,0.0,0.0,0.0,0.0,0.0,1576.1727034457786,1585.2221086792854,1588.0496049049104,1528.2460082144335,1576.7674396643285,1583.524709487304,1577.9454117784162,1539.6405564658412,23.39383986554061,-2.1146700694180898,4.014235837763765,0.18937783434718738
58,0.5900000000000003,-4.832376161400093,1.4815792697841168,1.7730528111515966,0.8773616586116164,0.32287650555938435,0.3292857173149333,0.13250735273343967,5.669359581449067,-6.69564157194657,4.312867288118932,-1.6764361457675134,3.65818647279443,0.2978800592367087,13.914874810523337,-8.860856841724107,2.300103647142393,0.0,0.0,0.0,0.0,0.0,0.0,0.0,0.0,0.0,0.0,0.0,0.0,0.0,0.0,0.0,1571.183443341911,1583.484297508431,1586.5497458819834,1521.602884260128,1571.7001517182157,1581.707487652644,1575.6011113229704,1533.835039170064,23.04282926112744,-2.3976952035847012,4.159286957108618,0.16090520658522312
59,0.6000000000000003,-4.774977754503838,1.4141972761975568,1.816289464120293,0.8737177250488335,0.31291642559988464,0.3439793960365697,0.14275441368868286,5.8112568371908635,-6.779307258778708,4.3339801537026625,-1.9012722637861037,3.821897716899751,0.28081114537871454,14.458289780529654,-7.981831949108731,1.9944984370932062,0.0,0.0,0.0,0.0,0.0,0.0,0.0,0.0,0.0,0.0,0.0,0.0,0.0,0.0,0.0,1567.4032325796875,1575.4001685059088,1577.325051041962,1516.5796050444494,1566.3358400503996,1574.8990438452995,1567.5631990423249,1527.1757746949966,23.065434263909566,-2.681040432833779,4.297236832851586,0.13164234062228078
60,0.6100000000000003,-4.7161364778829284,1.34602571079118,1.8597195014917838,0.869788726805736,0.3016094828258814,0.3590672690494753,0.15352519952279103,5.957764434569287,-6.853352006018994,4.351425895698196,-2.1574573573292772,3.977973444615831,0.26215627525132273,14.88630299575977,-6.9718030035534895,1.6061628181773813,0.0,0.0,0.0,0.0,0.0,0.0,0.0,0.0,0.0,0.0,0.0,0.0,0.0,0.0,0.0,1559.6058858131548,1562.8939852054311,1564.8104957813646,1503.2791513225332,1557.5193111512529,1562.8955206822752,1554.3408985116293,1514.2190757275757,23.339231933816425,-2.959952533459867,4.469403434746636,0.10846202430375401
61,0.6200000000000003,-4.655801988456739,1.2771612817089617,1.9033102256535905,0.8655502221590767,0.2888533931307887,0.37445558404083296,0.16483187124413146,6.110238106609561,-6.917960661014422,4.366400668265876,-2.426686232458451,4.12546145147973,0.2417747892095625,15.544429974155172,-6.030204483474577,1.4110575768606637,0.0,0.0,0.0,0.0,0.0,0.0,0.0,0.0,0.0,0.0,0.0,0.0,0.0,0.0,0.0,1562.8128433304983,1562.360188159278,1564.0739628518627,1501.9434188709215,1560.6063957386543,1563.5597773205875,1553.9676987520202,1513.8401870247526,23.362541110989714,-3.278951635004567,4.70082804359631,0.08584800798255776
62,0.6300000000000003,-4.593904476205745,1.2076968820765188,1.9470449681449842,0.8609337619461059,0.2745901547283768,0.3900981295686584,0.1766826357472797,6.270632144400597,-6.973313943723837,4.380421168105021,-2.7002492269408145,4.285173171995688,0.22054357467184912,16.383953064808665,-5.083533818462271,1.349574927958841,0.0,0.0,0.0,0.0,0.0,0.0,0.0,0.0,0.0,0.0,0.0,0.0,0.0,0.0,0.0,1571.319067948608,1571.777236213739,1573.8396784808526,1509.086424926058,1569.987951258118,1572.830787755177,1563.5687882689228,1522.2129163391166,23.28966528754775,-3.565421364029333,4.883757888489597,0.060357686200033886
63,0.6400000000000003,-4.530366175896905,1.1377307137181634,1.9909130285279713,0.8558266510209197,0.25871591323853643,0.406025895978823,0.18912903382098906,6.438120782238818,-7.018018959283159,4.392862366084697,-2.9978346200889288,4.479058057559635,0.19889119576629918,17.03936309672116,-3.9490355052702597,1.152133629297225,0.0,0.0,0.0,0.0,0.0,0.0,0.0,0.0,0.0,0.0,0.0,0.0,0.0,0.0,0.0,1570.6404775736994,1575.0416894635755,1578.9790026145718,1505.6721920639961,1569.7906755265587,1574.810564820089,1566.6434282717726,1520.3893276334927,23.31257512921815,-3.729084101134837,4.985188056688575,0.031248365707228762
64,0.6500000000000004,-4.46512300619178,1.0673771154899911,2.0348937291126243,0.8501075992242393,0.24117302136035612,0.4222244508306765,0.20218594567835613,6.611437231823395,-7.050582398040408,4.402836979411398,-3.2882854439367333,4.666141835452699,0.1767619462828491,17.585440235043492,-2.680132832395543,0.881526301781399,0.0,0.0,0.0,0.0,0.0,0.0,0.0,0.0,0.0,0.0,0.0,0.0,0.0,0.0,0.0,1569.006064902948,1573.0444300559286,1576.4060039449637,1502.9078268264461,1567.5023447922672,1573.1215537603023,1564.5260312098035,1516.713601031007,23.384013890126653,-3.85088541450916,5.018684208041301,0.000690549040157102
65,0.6600000000000004,-4.398118042624533,0.9967625633987384,2.0789615647014714,0.8436742109697661,0.2221406520776923,0.43855817237697964,0.21571760679277813,6.790504052852309,-7.070079982218,4.410307214497292,-3.5110014601404607,4.812225901970943,0.1537652866617697,18.157550679048562,-1.3366965010170873,0.6295966292899635,0.0,0.0,0.0,0.0,0.0,0.0,0.0,0.0,0.0,0.0,0.0,0.0,0.0,0.0,0.0,1571.1799613576768,1573.6621591816508,1569.8454650921933,1509.658244832727,1569.6213677770825,1574.051321400693,1561.3030222724938,1520.0141498327473,23.250743532261435,-3.954307349822725,5.030219157355296,-0.02522994094905889
66,0.6700000000000004,-4.329293620293946,0.9260216358658413,2.123091618629354,0.8364762823721844,0.20190579971731323,0.4548207860770686,0.2295202161500362,6.9752891606196075,-7.075731344894178,4.415258921882202,-3.682740917179121,4.905751617612678,0.1296330263759737,18.712533045932567,0.08180412366787237,0.368594559819968,0.0,0.0,0.0,0.0,0.0,0.0,0.0,0.0,0.0,0.0,0.0,0.0,0.0,0.0,0.0,1576.2400018743422,1574.8169068436382,1562.9887811653534,1519.8436728292247,1574.2602344202667,1575.742373591948,1557.7477901568782,1526.8640109534674,23.58651914380365,-4.0622498060315095,5.093168911147853,-0.04916275391664314
67,0.6800000000000004,-4.25859967491481,0.8552971434172646,2.1672546571603672,0.8285079485509971,0.18069934216396852,0.47081321961359335,0.24342809855563038,7.164040973865144,-7.066662328921519,4.41670377764208,-3.820388990800828,4.961904158499931,0.10495304744565746,19.02918207742399,1.5843197780993634,-0.02415180667636463,0.0,0.0,0.0,0.0,0.0,0.0,0.0,0.0,0.0,0.0,0.0,0.0,0.0,0.0,0.0,1574.0142844449967,1569.2838969580037,1552.3151681759664,1521.9553632923582,1571.4184593708496,1570.0927513487989,1548.6001391249667,1526.7776925028038,24.447214595867518,-4.1030477732721735,5.094582576853726,-0.07440857413001888
68,0.6900000000000004,-4.185993180885145,0.7847385740874389,2.211417898659982,0.8197375181935243,0.15864902152892763,0.486447180189576,0.2573519576755648,7.358212458314445,-7.042483464443078,4.415539536155266,-3.943682390318041,5.022923738694053,0.08024017776567727,19.63611898953399,3.117381542037556,-0.24739420706687554,0.0,0.0,0.0,0.0,0.0,0.0,0.0,0.0,0.0,0.0,0.0,0.0,0.0,0.0,0.0,1583.2175766210123,1580.587289190874,1561.5370214368934,1534.0361977292998,1582.246316911765,1581.2062761476338,1558.2104744020094,1539.994267390722,24.837395285250974,-4.062355185108961,5.051794015833623,-0.104358319396699
69,0.7000000000000004,-4.11140290841695,0.7145004426561405,2.2555643487703274,0.8101323445986859,0.13591118736215904,0.501666796388608,0.27119026307379673,7.561319363909914,-7.002402779483415,4.4135998356218415,-4.023379656434627,5.054796150158896,0.05550499255945235,20.613573863275114,4.751886766014124,-0.28656317201125603,0.0,0.0,0.0,0.0,0.0,0.0,0.0,0.0,0.0,0.0,0.0,0.0,0.0,0.0,0.0,1610.7530219510566,1607.4790570123782,1584.5922871374064,1566.4620712068056,1610.4104206262534,1609.2118699556086,1584.2043789601346,1571.1026897691152,25.109776878938995,-4.0212575722541,4.997537144167974,-0.13631062847429873
70,0.7100000000000004,-4.03474499762765,0.6447468021978828,2.299682462947094,0.7997156700208464,0.1127638916892118,0.5163771392156187,0.28476973496090857,7.771026909830978,-6.945478800265362,4.409474103336783,-4.040507883500728,5.0519798331733545,0.03014776430453992,21.125742920466095,6.458968150633737,-0.5871827567149879,0.0,0.0,0.0,0.0,0.0,0.0,0.0,0.0,0.0,0.0,0.0,0.0,0.0,0.0,0.0,1624.7015660853226,1621.126108938706,1590.8353052642085,1586.1924477402022,1623.9254549092466,1621.8980638597802,1592.4644035633319,1587.3226971330625,25.372464647212144,-3.987560516549143,4.915095244635622,-0.16207741345013377
71,0.7200000000000004,-3.9559700074389967,0.5756483949027402,2.343741228803518,0.7885418118274282,0.08944440746200726,0.5304994067492623,0.297946116625755,7.984380095345529,-6.87132642014727,4.4015425473671765,-4.0293318942309515,5.025898738964816,0.0038192343596744303,21.40852485659739,8.187213482619526,-1.010128381650155,0.0,0.0,0.0,0.0,0.0,0.0,0.0,0.0,0.0,0.0,0.0,0.0,0.0,0.0,0.0,1634.6347195699109,1630.4150879038107,1594.535733581132,1599.2686846077365,1633.746142338699,1630.8274016752175,1597.3122350996798,1598.8443235908082,25.67129563311937,-3.9663496494521215,4.849319272700187,-0.18451712868722428
72,0.7300000000000004,-3.8750499711139725,0.5073782599954995,2.3876981463736127,0.7766893257986169,0.06608879404308396,0.5439527381172984,0.31064671443154607,8.199825435605154,-6.779818525220172,4.389002525800927,-4.007416420778425,4.973586715626285,-0.022733660743838084,21.56242732731073,9.92159651678648,-1.496566798842025,0.0,0.0,0.0,0.0,0.0,0.0,0.0,0.0,0.0,0.0,0.0,0.0,0.0,0.0,0.0,1644.5154467306536,1637.1467418910327,1599.656918925002,1611.3331745095675,1642.9400762067096,1638.1235047557814,1603.4079025165481,1609.968299266636,25.95018071031447,-3.8816525702499316,4.720419863131864,-0.20577445750878146
73,0.7400000000000004,-3.791969174931715,0.44011027389043156,2.4315046620956733,0.764229597162862,0.042764298638773776,0.5566788474448715,0.3228513564934689,8.416380322167667,-6.670894912899738,4.371396294475635,-3.9862200867559343,4.915989486130436,-0.04878807047342992,21.62887372193545,11.660218042360171,-2.0217121227972257,0.0,0.0,0.0,0.0,0.0,0.0,0.0,0.0,0.0,0.0,0.0,0.0,0.0,0.0,0.0,1654.172096546447,1645.3918654345907,1608.7470733378884,1622.2883322253713,1652.6152056517349,1646.4562005899272,1612.4040400166248,1621.1161331329938,26.154526951064362,-3.7171336766530594,4.596283398391714,-0.23131501136360477
74,0.7500000000000004,-3.706722245377641,0.37401822862733963,2.475107644976493,0.7512501714992735,0.019600005514522047,0.5686328582603922,0.3345081345987861,8.632837021987656,-6.544675161652183,4.348209559337555,-3.93083572954465,4.824131553913422,-0.07413783465716932,21.56345542970861,13.374792064681174,-2.6009289688850856,0.0,0.0,0.0,0.0,0.0,0.0,0.0,0.0,0.0,0.0,0.0,0.0,0.0,0.0,0.0,1663.9890411176477,1652.1348403912161,1613.9713922544877,1635.9455072804617,1661.8496157844645,1653.7660601733346,1619.5688290910236,1632.8023355925445,26.390979609481853,-3.5738626073289734,4.523450603690565,-0.2590502166357815
75,0.7600000000000005,-3.6193180168913517,0.3092727634368952,2.5184481983474227,0.7378631998154784,-0.0031660827535701973,0.5798126392416819,0.3454926593339664,8.847571128535213,-6.401700189593911,4.31880738036896,-3.8184591972062005,4.718285847746304,-0.09930714782131447,21.32745407861414,15.017185407296019,-3.2462644588564515,0.0,0.0,0.0,0.0,0.0,0.0,0.0,0.0,0.0,0.0,0.0,0.0,0.0,0.0,0.0,1669.426226474747,1659.7439954932975,1616.1140606030053,1646.9230305074395,1668.2232619543404,1660.2626701505808,1623.2232257209137,1642.0631096339835,26.633446370311397,-3.497882198583026,4.40976419304846,-0.28143191009769625
76,0.7700000000000005,-3.5297795078526977,0.24603836308226892,2.5614619322689522,0.7241263566294139,-0.025394013111668667,0.5903036353028145,0.3557214948256251,9.05956532953179,-6.242558544564622,4.28279402278641,-3.6921636210182576,4.629064633699167,-0.12471935566659381,21.0170711580151,16.604767278562527,-3.9219030556587597,0.0,0.0,0.0,0.0,0.0,0.0,0.0,0.0,0.0,0.0,0.0,0.0,0.0,0.0,0.0,1674.4660586915213,1669.8891252352696,1623.0849172683772,1654.3688727857063,1674.5788131106092,1669.1888398698263,1629.7470783937292,1649.988520451353,26.94227221920905,-3.4611982987419925,4.297354528486176,-0.30075096367399706
77,0.7800000000000005,-3.4381381868594296,0.18447366386742417,2.6040810256004434,0.7100958003807754,-0.047101125349034594,0.6001263490124047,0.3652311644609234,9.267990507878162,-6.067872273001095,4.239825926766372,-3.5934648323669744,4.527280861945608,-0.14987533023739147,20.62152003089146,18.127050086084395,-4.630491233994505,0.0,0.0,0.0,0.0,0.0,0.0,0.0,0.0,0.0,0.0,0.0,0.0,0.0,0.0,0.0,1683.2670307331368,1675.4870528692538,1631.1839775886194,1662.229497472821,1682.1186770085728,1676.0328566117162,1637.7340469985095,1657.9921795780072,27.13848227724986,-3.3403697842740487,4.153321384671731,-0.3190033619353337
78,0.7900000000000005,-3.3444326616848845,0.12473169327143893,2.646234909593859,0.6958477034949755,-0.06836218571037483,0.6092222180528538,0.3741268155805329,9.472332843247901,-5.878077418660726,4.189735851675302,-3.5265126372374485,4.421116159452853,-0.1742085080978,20.187759362750413,19.615369115994596,-5.347856397702522,0.0,0.0,0.0,0.0,0.0,0.0,0.0,0.0,0.0,0.0,0.0,0.0,0.0,0.0,0.0,1694.3437022999935,1682.0597640262877,1642.6362370832244,1671.256747463222,1692.3633211729082,1683.6692016699749,1648.5156851701618,1667.8245395379306,27.254236037662874,-3.142856077516723,4.030850647362585,-0.339665056382195
79,0.8000000000000005,-3.2487095020365206,0.0669592613253137,2.687850824810992,0.6814702211676031,-0.0891332919177851,0.617580133516525,0.38242433580956653,9.67126463428812,-5.674174587493318,4.13216902555555,-3.429007874118152,4.296885744073606,-0.19761588039233519,19.590445994348116,20.973913088699447,-6.107907773999166,0.0,0.0,0.0,0.0,0.0,0.0,0.0,0.0,0.0,0.0,0.0,0.0,0.0,0.0,0.0,1700.782876749074,1686.7517417011784,1647.408345317984,1680.2793109441764,1698.5999703588695,1688.2848441922215,1654.3355903048791,1675.4866952740285,27.43982502632042,-2.982841842614437,4.0045069424763025,-0.3612688979783258
80,0.8100000000000005,-3.1510300788000025,0.01129072302991517,2.7288523103626603,0.6670615065895578,-0.109245628863139,0.6252815552864344,0.39002219888019773,9.863396645151802,-5.4575280704013505,4.066810706944969,-3.2791983712442403,4.174364146165917,-0.22044414348086466,18.869125188812674,22.19042862326237,-6.894832611132884,0.0,0.0,0.0,0.0,0.0,0.0,0.0,0.0,0.0,0.0,0.0,0.0,0.0,0.0,0.0,1701.907863753815,1692.4187310682369,1648.8481962071774,1686.7957491235697,1701.1005698213014,1692.3794669163942,1656.7107999616694,1680.8207527063228,27.63532679201508,-2.9253557208274863,3.9211722796790496,-0.3797997865792228
81,0.8200000000000005,-3.0514649637307807,-0.042151249926275086,2.769161006434188,0.6526178392798353,-0.12865634932988704,0.6324921451210588,0.3968515918967527,10.048395925404538,-5.228968057694995,3.993607177819312,-3.126405264426693,4.098342433156143,-0.2429306370020582,18.14899906672629,23.347990835269172,-7.682232249704768,0.0,0.0,0.0,0.0,0.0,0.0,0.0,0.0,0.0,0.0,0.0,0.0,0.0,0.0,0.0,1702.761577111906,1702.475786617608,1657.575477941438,1689.7824184451692,1704.1076944639594,1700.5219322844785,1663.7820441855602,1685.5114046097763,27.92708381975304,-2.9297280937060877,3.793734420193883,-0.3955828481307948
82,0.8300000000000005,-2.950086430375767,-0.09325115252993565,2.8086979763728093,0.6381113156646713,-0.14748760203932165,0.6392593101320757,0.4029998641127013,10.226020586276356,-4.989249458439588,3.912445834401472,-3.0248208899049303,4.016725864935343,-0.26489747388745516,17.39470087557926,24.42616011666221,-8.482175031219619,0.0,0.0,0.0,0.0,0.0,0.0,0.0,0.0,0.0,0.0,0.0,0.0,0.0,0.0,0.0,1709.9883211762467,1706.3445654497598,1666.2184868747172,1694.088998912308,1709.6244755311757,1706.1249589038775,1671.7639947489758,1690.461780543933,28.046222311530492,-2.866334144404878,3.6776369556053368,-0.4104096999852219
83,0.8400000000000005,-2.8469684838853992,-0.14189955868674264,2.8473834995017113,0.6235914004864906,-0.16587530401040518,0.6454580731296298,0.4086600354702411,10.396291149281062,-4.738700034128376,3.8233312696421127,-2.977412634246851,3.9134643658986614,-0.2859633863970265,16.655156830347906,25.492761810578912,-9.273793242588368,0.0,0.0,0.0,0.0,0.0,0.0,0.0,0.0,0.0,0.0,0.0,0.0,0.0,0.0,0.0,1722.76599913,1709.7083138498876,1676.829916162966,1702.4728318728785,1720.3355617319455,1711.8968536745572,1682.0555395283295,1699.3944888498222,28.100352447506868,-2.746492434017721,3.551446933225909,-0.4273207338413218
84,0.8500000000000005,-2.742188852693655,-0.18799377250873373,2.885137813178644,0.6091235367726467,-0.18384342538109008,0.6510292029167999,0.41392159745928475,10.558131533771718,-4.4787084327093405,3.7261928766280197,-2.918655090720371,3.8050772878993655,-0.3060605765325381,15.765981971048504,26.369770627153066,-10.07572547197233,0.0,0.0,0.0,0.0,0.0,0.0,0.0,0.0,0.0,0.0,0.0,0.0,0.0,0.0,0.0,1727.1846666561132,1711.7294366214694,1681.1364834454955,1707.243781143545,1724.6605086685354,1713.5621840928152,1686.2566005169047,1703.7326672970657,28.276031793478403,-2.6141832594527066,3.544086119593581,-0.4432596282772786
85,0.8600000000000005,-2.6358372292263605,-0.23144734482372775,2.921880735104878,0.5947838648390369,-0.20130569277837046,0.6560211498795293,0.41874147524803257,10.710585427398684,-4.210789332573174,3.621073548782113,-2.827517137054381,3.688242202172692,-0.3255320813193503,14.80618775421405,27.10953143149375,-10.866951356586885,0.0,0.0,0.0,0.0,0.0,0.0,0.0,0.0,0.0,0.0,0.0,0.0,0.0,0.0,0.0,1728.021520602433,1713.736802818157,1681.1714499314955,1711.3344208366746,1726.0329269122396,1714.8724469720723,1687.2563130962633,1706.634918586015,28.439312443741024,-2.558053376872487,3.476554550704914,-0.45763699890166565
86,0.8700000000000006,-2.528007398149346,-0.2721838111606997,2.9575333625199662,0.580558814622907,-0.21823133731577218,0.6605829104095833,0.4230328174643422,10.853849008423534,-3.935296951765255,3.5081579291220195,-2.7159058188977125,3.62480017105966,-0.34440816878977903,13.899791314525345,27.853432977821946,-11.641934797662401,0.0,0.0,0.0,0.0,0.0,0.0,0.0,0.0,0.0,0.0,0.0,0.0,0.0,0.0,0.0,1727.4927648210917,1723.82609998418,1689.6039824575578,1714.089793513984,1728.3401129506726,1722.5005750346274,1694.2133848874043,1711.1122182883903,28.71429728814264,-2.627234013075439,3.273404577380237,-0.4711020164691916
87,0.8800000000000006,-2.4187906422055088,-0.3101297086424997,2.9920180207267157,0.5663919954759364,-0.2346925679052096,0.6647945185082214,0.4268111458154149,10.987940439231279,-3.6528100529064496,3.387482884647868,-2.634997382658399,3.5569443297044727,-0.3626162485111698,12.975421807366772,28.517228234300696,-12.41593966686505,0.0,0.0,0.0,0.0,0.0,0.0,0.0,0.0,0.0,0.0,0.0,0.0,0.0,0.0,0.0,1732.3972721025837,1727.8744546249868,1696.34852452508,1718.2566611044463,1732.0979632925716,1727.6912159801595,1700.8028562582895,1715.3675572139402,28.783226344791927,-2.68453564014558,3.100205701108532,-0.4837381387792769
88,0.8900000000000006,-2.3082779730373426,-0.3452163517274333,3.025257372824057,0.5523617751722314,-0.2507734325822731,0.6684559720457625,0.430320541312915,11.113078823302544,-3.3634212370476604,3.2591276412316823,-2.6329764429087126,3.424059644201063,-0.38003134724643944,12.085547538207564,29.203816754515,-13.17318836692305,0.0,0.0,0.0,0.0,0.0,0.0,0.0,0.0,0.0,0.0,0.0,0.0,0.0,0.0,0.0,1748.5036000171622,1726.8607913120043,1703.3043161361998,1728.5938063162125,1744.10558218657,1731.2439090114685,1708.7156693277952,1725.0420550209992,28.796177395050222,-2.8745114247865553,2.7436495325135133,-0.499649059110455
89,0.9000000000000006,-2.1965618307871924,-0.37738040248016924,3.0571760219336013,0.5385669826149277,-0.266521577281682,0.6713642277871197,0.4337994095525498,11.228449077120233,-3.068622694793031,3.123415263396624,-2.658894112156561,3.274743343702103,-0.3966974476193678,11.071785774381837,29.675068557712514,-13.888189239907422,0.0,0.0,0.0,0.0,0.0,0.0,0.0,0.0,0.0,0.0,0.0,0.0,0.0,0.0,0.0,1754.7976819308644,1724.2537043184939,1706.2459793708247,1731.3828570617975,1749.2278748098197,1729.2942555327181,1710.6948617089029,1728.1506114713748,28.830165265478698,-2.8383791391505513,2.5332144060831556,-0.5105418694520322
90,0.9100000000000006,-2.083744149840128,-0.40657573498164984,3.087702978845817,0.5251409279679291,-0.28196627998956236,0.6732515511982358,0.43755499257921776,11.333305298505225,-2.769830890156596,2.9809126655910028,-2.7710728242181313,3.0256323123024305,-0.4129025206607534,10.001998295328107,30.040537414405044,-14.531273152773583,0.0,0.0,0.0,0.0,0.0,0.0,0.0,0.0,0.0,0.0,0.0,0.0,0.0,0.0,0.0,1766.6266525259025,1712.753984356898,1702.6512475885504,1735.9997266249557,1756.095051067194,1723.030712379873,1708.8684001075615,1730.804791886107,28.69247632322401,-2.5511726143180087,2.309380784945099,-0.5180035389802597
91,0.9200000000000006,-1.9699314414409927,-0.43276504219279266,3.1167744171566034,0.5122386315757397,-0.29699700259875084,0.6740622021416729,0.441638440823135,11.427443449696426,-2.467477102122898,2.832449118218959,-2.7999628329140482,2.7997681833427523,-0.4286470337689238,8.927729127682582,30.37795030888013,-15.091212612757587,0.0,0.0,0.0,0.0,0.0,0.0,0.0,0.0,0.0,0.0,0.0,0.0,0.0,0.0,0.0,1764.894786455489,1715.6707761622329,1702.659406517713,1739.0256018003804,1757.3015842154862,1722.7437246298969,1708.7967057074213,1734.0145838400938,28.179304631320743,-2.3640022324377337,1.9551791400038183,-0.5261458769737398
92,0.9300000000000006,-1.8552329576361632,-0.4559193919768969,3.144335069970375,0.5000250090926178,-0.3113102683266357,0.6741382840937984,0.4456438948705512,11.510411205359736,-2.1631515787619486,2.6788936861453645,-2.6633651972541545,2.5733382322978136,-0.44338185918457346,7.809715537801409,30.507887840684145,-15.565759756847708,0.0,0.0,0.0,0.0,0.0,0.0,0.0,0.0,0.0,0.0,0.0,0.0,0.0,0.0,0.0,1752.5947168465977,1718.791729901098,1692.3219459328786,1742.8459118972612,1748.5246544505326,1721.70792583525,1702.1167585928458,1733.984278456527,27.51477788198245,-2.186205892545003,1.680564609024922,-0.5332237103230408
93,0.9400000000000006,-1.7397635326671728,-0.47603501021876554,3.1703389528553445,0.4887645491174977,-0.32462785487414647,0.6736381278339609,0.44937472569575526,11.581550339953816,-1.8603267243522041,2.521283509803737,-2.5078807657370077,2.2848454750526344,-0.4570330161546396,6.62332016292666,30.238347318470858,-15.923965429944342,0.0,0.0,0.0,0.0,0.0,0.0,0.0,0.0,0.0,0.0,0.0,0.0,0.0,0.0,0.0,1738.6148756488833,1701.6475054661523,1669.400393597985,1736.684914335555,1732.4223816784859,1705.678661772599,1682.0281299330547,1724.0600995178572,27.824517409772078,-2.085571087795985,1.303941422445528,-0.5443475148431467
94,0.9500000000000006,-1.6236416821948914,-0.493141487224698,3.1947512374075187,0.47861068764334763,-0.33686063406160305,0.6725893781850438,0.4528578709107671,11.640977449033247,-1.561645764518154,2.360752431373596,-2.3420964501556414,2.0058656127761556,-0.4695657701858636,5.479717757665981,29.756409868846756,-16.171602776401173,0.0,0.0,0.0,0.0,0.0,0.0,0.0,0.0,0.0,0.0,0.0,0.0,0.0,0.0,0.0,1717.3319787765267,1681.7465742201375,1648.3902248584677,1718.7628880094342,1711.4860399060717,1684.9445145114983,1659.8901182253028,1706.6260289472202,28.310984450228055,-1.810978059289281,1.117906267664044,-0.5505539534871594
95,0.9600000000000006,-1.5069719210599324,-0.5072617693513494,3.217544066642382,0.4696353386571451,-0.3480145816612121,0.670962587123238,0.4562211155968689,11.691711880059984,-1.2619116713288203,2.1973555980293007,-2.211758524064961,1.6789654402241636,-0.48158598035068223,4.725596843453417,30.075801149344493,-16.45343321438908,0.0,0.0,0.0,0.0,0.0,0.0,0.0,0.0,0.0,0.0,0.0,0.0,0.0,0.0,0.0,1729.784266791369,1684.901793682981,1654.276437650926,1729.2519201598413,1722.8821183340579,1692.203910514317,1668.2249670734714,1717.5320749555933,28.508555453990542,-1.409798692151085,0.9586011701732636,-0.5556227754055805
96,0.9700000000000006,-1.3898294674842555,-0.5183631474050107,3.238689337666911,0.46187617049944674,-0.35806591750770367,0.6688948802494215,0.4593896396527074,11.735712591190564,-0.9576289044920637,2.0313075445019275,-2.002797911428052,1.4223212165545853,-0.4928770603685315,4.09910065171637,30.56955141007178,-16.69849604206064,0.0,0.0,0.0,0.0,0.0,0.0,0.0,0.0,0.0,0.0,0.0,0.0,0.0,0.0,0.0,1736.1298443980409,1706.4376702882232,1672.0794117405246,1741.8348393481488,1733.9781491242647,1709.4697998193067,1684.6506586869727,1732.0346956366343,28.68657149185741,-1.1075683894003756,0.675947102332058,-0.5616658349080141
97,0.9800000000000006,-1.2722792601874608,-0.5264048960928701,3.258163931714574,0.4553241643727137,-0.36695532903655165,0.6667644716582103,0.46200522850322157,11.77329594293141,-0.6504080189015503,1.8633500855551601,-1.694613148031766,1.2091796576676541,-0.5032327370557069,3.4791389098245418,30.77961607840973,-16.8602049288471,0.0,0.0,0.0,0.0,0.0,0.0,0.0,0.0,0.0,0.0,0.0,0.0,0.0,0.0,0.0,1732.457388609274,1721.6390482401582,1678.7695491697132,1749.1008575405576,1733.5495659742783,1720.6582442448728,1691.9538535608904,1737.9612773152273,28.716839198181127,-0.8513071208424601,0.45816223838816356,-0.5662430729222306
98,0.9900000000000007,-1.1543824991406424,-0.5313655145348011,3.2759516952973984,0.45006570496943693,-0.3746156479476252,0.6647144018006839,0.46395984908384436,11.805188058190419,-0.34150301594180604,1.6940166864703994,-1.3946858613212225,0.9603627230249703,-0.5128915361845257,2.9561755705387327,30.92482886237169,-16.976935515023992,0.0,0.0,0.0,0.0,0.0,0.0,0.0,0.0,0.0,0.0,0.0,0.0,0.0,0.0,0.0,1738.2345761886006,1725.8263452490444,1681.218938539804,1758.2200360094555,1737.4514063267552,1726.6343552784294,1696.2265178002908,1745.2442128501027,28.62245091580222,-0.750723979922116,0.1596095031442024,-0.5781876864293669
99,1.0000000000000007,-1.0361918903869451,-0.5332341686656825,3.2920418344308615,0.4461310891603371,-0.3810718389353588,0.6627220287945784,0.46535020941806104,11.832193354195491,-0.03226010633219996,1.5239370848229687,-1.1182365290041645,0.7282495198028583,-0.5216876766405563,2.506227958416929,30.90945861257076,-17.02427808339202,0.0,0.0,0.0,0.0,0.0,0.0,0.0,0.0,0.0,0.0,0.0,0.0,0.0,0.0,0.0,1738.8504941910594,1726.4618195738665,1684.599586781027,1758.3078378571327,1737.868703452034,1727.0712653748046,1697.6907377898874,1746.57635306553,28.792321660644323,-0.5739473679427608,0.10439608502370762,-0.5826404285410406
100,1.0100000000000007,-0.9177526377314782,-0.5320150666696472,3.3064303817415928,0.4434490009633903,-0.3864531488076503,0.6606485925008401,0.4664229674317959,11.855031269313427,0.27584630345007705,1.3538229273321354,-0.9348218140724897,0.4629285400899534,-0.5305273263038258,2.122513261353376,30.75693445125374,-16.995393553280724,0.0,0.0,0.0,0.0,0.0,0.0,0.0,0.0,0.0,0.0,0.0,0.0,0.0,0.0,0.0,1742.613935729096,1717.9630357536898,1683.2776780654126,1753.8248356842632,1738.2467049298282,1721.709089137456,1695.3467777703431,1742.5355878410905,28.730356815315893,-0.32242667746006637,0.18805377883614868,-0.5838345139022735
101,1.0200000000000007,-0.7991010195603351,-0.5277159162915787,3.319119145630151,0.4418339413025735,-0.3909422796379587,0.6584944243562701,0.467260093947915,11.874875457959837,0.5840721669093999,1.183999648248458,-0.7506822172088986,0.30078209749191526,-0.5389313590400991,1.8719468280039564,30.827049156086694,-16.958220550446157,0.0,0.0,0.0,0.0,0.0,0.0,0.0,0.0,0.0,0.0,0.0,0.0,0.0,0.0,0.0,1740.7052957753147,1728.5366594996103,1697.6941569290366,1750.217114597333,1740.5146489465894,1728.751337289006,1705.6191658857915,1743.5335857282212,28.822325344389355,-0.15488610320118082,0.18978412910810274,-0.5875901512588199
102,1.0300000000000007,-0.6802634491841361,-0.5203370203855455,3.3301130511208212,0.4409663891038045,-0.3947563991892549,0.6565555186512234,0.46760119750542634,11.892275831460182,0.891480341426368,1.014925103779912,-0.5302229295404423,0.2527133974946542,-0.5462329079923638,1.6479893136853718,30.684568142028358,-16.87035269901438,0.0,0.0,0.0,0.0,0.0,0.0,0.0,0.0,0.0,0.0,0.0,0.0,0.0,0.0,0.0,1726.8556487989933,1737.8000132443215,1706.1136947112816,1740.3968786612327,1731.0456685079496,1733.135558331736,1710.853142035066,1736.0781949271334,29.23517464078304,-0.06218892418366545,0.19307006932784865,-0.5912466798772996
103,1.0400000000000007,-0.5612609191325706,-0.509887706777441,3.3394197916952564,0.4406287407698658,-0.398053520410918,0.6549865218794538,0.46732468782666825,11.908016578425883,1.1983179115763065,0.8465205875508842,-0.33987783516792175,0.2237493842603667,-0.5528735354440291,1.5180213571355239,30.655248032096072,-16.812866089558565,0.0,0.0,0.0,0.0,0.0,0.0,0.0,0.0,0.0,0.0,0.0,0.0,0.0,0.0,0.0,1726.6397760624473,1742.4384102268193,1712.7488233391246,1739.6847995612095,1730.2982420038775,1738.7304016717953,1717.5626022731265,1735.612953396185,29.403381007494552,-0.07242777466361498,0.041687268507001385,-0.6037925734540102
104,1.0500000000000007,-0.4421045680499247,-0.496363065718874,3.3470436124957583,0.4406908114986557,-0.40096073655364894,0.6537335704221134,0.46653458103999923,11.923215442776813,1.5069598726215865,0.6782471447539232,-0.2005785234441165,0.210007539500814,-0.5590247273227816,1.5022802051571915,30.91090323724055,-16.81839048144429,0.0,0.0,0.0,0.0,0.0,0.0,0.0,0.0,0.0,0.0,0.0,0.0,0.0,0.0,0.0,1739.221726322409,1752.9952088294222,1728.7002885457823,1748.2200798677325,1742.2924320565505,1750.8175294922135,1732.579712808957,1745.939612016636,29.674997173308178,-0.01750060516892444,0.0544874961047513,-0.6075471691613632
105,1.0600000000000007,-0.32279754202171307,-0.47974533995366386,3.3529854372470194,0.44111366041962696,-0.4035591476058778,0.6525842866839237,0.46550241862749736,11.938142529155849,1.8166196771955896,0.5101871116947316,-0.13882218741768368,0.12907964171468223,-0.565754545131059,1.4771449766932676,30.95401105061235,-16.78199171324035,0.0,0.0,0.0,0.0,0.0,0.0,0.0,0.0,0.0,0.0,0.0,0.0,0.0,0.0,0.0,1753.8706211436456,1750.2762973041647,1732.171034783758,1754.169962543556,1752.2696987639092,1752.1498674702789,1736.6723803858774,1750.567141078873,29.55514751740984,0.09767651579341985,0.29441839458241126,-0.6050262317401801
106,1.0700000000000007,-0.20334152546525844,-0.4600265129680093,3.3572483738640746,0.4418604728153417,-0.40590549749194205,0.651436002520771,0.46436104949594953,11.953079334496087,2.1272978265268385,0.3424671218127858,-0.07697641762161893,0.09662706884226607,-0.5724356239918951,1.4934736444267571,31.07705270973593,-16.747852777200478,0.0,0.0,0.0,0.0,0.0,0.0,0.0,0.0,0.0,0.0,0.0,0.0,0.0,0.0,0.0,1759.9026372517285,1759.4927229281225,1744.4474614178012,1758.4183647244347,1760.5059450264762,1759.3304612594536,1746.6953714076847,1757.3609194221433,29.393073870492103,0.20351642817373955,0.522888368132675,-0.605042489724061
107,1.0800000000000007,-0.08373704710268023,-0.4372051506000244,3.3598376489681683,0.442666826685881,-0.4081743447285288,0.6505217293217042,0.46288364038663976,11.967763421326152,2.4366011773721308,0.175520073157277,0.013729008921853018,0.19359727428392454,-0.5778758428222797,1.4577531042192504,30.840730319131815,-16.663966033858667,0.0,0.0,0.0,0.0,0.0,0.0,0.0,0.0,0.0,0.0,0.0,0.0,0.0,0.0,0.0,1744.3978907589155,1767.0492193759972,1752.0439305481054,1746.636898833126,1749.9708918478516,1760.9785664593867,1749.8082881583416,1748.9427978442945,29.251661086093556,0.348562836848498,0.5422106229890568,-0.6064902828916565
108,1.0900000000000007,0.03601248436648964,-0.41130449580211265,3.3607611341539005,0.4432561786626422,-0.4105432058758992,0.6500911842557578,0.4608250083702893,11.9821016176524,2.7430534337851467,0.00924289368937169,0.11123838478165833,0.34837874160778753,-0.5823033138308472,1.4275255494187178,30.53437697989958,-16.617214884226083,0.0,0.0,0.0,0.0,0.0,0.0,0.0,0.0,0.0,0.0,0.0,0.0,0.0,0.0,0.0,1732.1968101399248,1768.6194899970187,1753.413747527771,1736.8480838289397,1739.214700583768,1761.0831158288424,1750.1788902211542,1739.9146200908876,29.172562930225038,0.44696165875691724,0.37177616471346275,-0.6194635366747601
109,1.1000000000000008,0.15590434730570843,-0.3823544018310567,3.360023058549251,0.44368182975377835,-0.4129551976454938,0.6501711650289065,0.4581396019215816,11.996272872359283,3.046486159387925,-0.15687456500298225,0.23379674554421004,0.43533947214430285,-0.5862176320293667,1.4230394270775548,30.22967050520231,-16.621614290538044,0.0,0.0,0.0,0.0,0.0,0.0,0.0,0.0,0.0,0.0,0.0,0.0,0.0,0.0,0.0,1731.0973736742417,1760.7958229474275,1743.9239762897223,1738.4941419333286,1735.2918788380075,1756.0501498197048,1744.4176246340282,1737.812402659107,29.501538268561273,0.4102075688579693,0.3396785065619031,-0.6242157998488411
110,1.1100000000000008,0.27593862009099634,-0.35038386414269224,3.3576227474333944,0.44426471365895187,-0.41517953048241785,0.6505516021337507,0.45501366422025036,12.010655446413809,3.347208420703276,-0.32324577579423375,0.3422577226359336,0.4009844626047453,-0.5910751292240728,1.4625383725999086,29.969870844912094,-16.654183250075118,0.0,0.0,0.0,0.0,0.0,0.0,0.0,0.0,0.0,0.0,0.0,0.0,0.0,0.0,0.0,1740.0607790322304,1748.8658633744226,1730.3789804777412,1745.2730193213615,1739.8564271737596,1748.6574697511346,1735.0002981833502,1740.6693291690674,29.00786995677932,0.40513582352604827,0.6180707737288578,-0.6200958015891347
111,1.1200000000000008,0.3961215677365221,-0.31540833225825565,3.353555035466323,0.44509662789512916,-0.4171919221777603,0.6509901417534474,0.45172085101956155,12.026160246353859,3.6480207617928597,-0.4904538678013264,0.37358204915543725,0.3730389541676525,-0.5962717838231634,1.6046380168717178,30.0777612059675,-16.755494580771913,0.0,0.0,0.0,0.0,0.0,0.0,0.0,0.0,0.0,0.0,0.0,0.0,0.0,0.0,0.0,1753.4565200458244,1753.8431648671308,1741.6166045070288,1752.5472494789108,1753.4190486380048,1754.5500919710944,1743.924881014554,1751.4546749871124,28.16721056399294,0.4877012288033906,1.010363127245924,-0.6172048559084286
112,1.1300000000000008,0.5164623895936755,-0.27744043330264306,3.3478144385452215,0.44583229507646704,-0.41926319290271025,0.651564452327413,0.4482362147430227,12.042010315786417,3.9446128181058526,-0.6576311897466617,0.38916773475838473,0.4926733199275134,-0.6004248073013212,1.5974998752525948,29.456920293119637,-16.72208067050962,0.0,0.0,0.0,0.0,0.0,0.0,0.0,0.0,0.0,0.0,0.0,0.0,0.0,0.0,0.0,1729.149150196915,1749.129643714454,1742.2299602495532,1726.5403273639354,1733.2556217795982,1743.457155840226,1737.0646624203753,1730.7211844760745,28.236052914903045,0.5741642979512955,1.0783675564570114,-0.6164535942828472
113,1.1400000000000008,0.6369589274225644,-0.23654832394143244,3.340405161108101,0.44604062998730415,-0.4216708873213284,0.6526101948449841,0.4442311929283719,12.057182960491671,4.232342378735823,-0.8241747852309254,0.4418557683434114,0.737605174778705,-0.6032704745254662,1.5067494512948088,28.472548372569406,-16.666448274245347,0.0,0.0,0.0,0.0,0.0,0.0,0.0,0.0,0.0,0.0,0.0,0.0,0.0,0.0,0.0,1690.517369799526,1736.4732334156367,1729.028281028112,1691.3424514247097,1698.8592698393286,1725.8225573690152,1720.406295057565,1697.8863446089654,28.636605782992056,0.6157979757831811,1.0295965054859195,-0.6289225416636246
114,1.1500000000000008,0.7576076531796094,-0.19280486345115116,3.3313268559835985,0.4457151555142281,-0.4243859760310289,0.6542156592210683,0.43958664074680615,12.07270299974433,4.516029284819317,-0.9917943215699919,0.5110156077833854,0.8914471838606253,-0.6054679545945063,1.5898838582497632,28.277733000664718,-16.84755834818652,0.0,0.0,0.0,0.0,0.0,0.0,0.0,0.0,0.0,0.0,0.0,0.0,0.0,0.0,0.0,1695.3488616331485,1732.7525423730372,1723.7656051992426,1699.1380294460614,1700.7897697076016,1727.391832866347,1721.559112092423,1701.6113304549333,29.031763089213527,0.4829193773775956,0.8697970593176074,-0.6344902015559029
115,1.1600000000000008,0.8784181253800047,-0.14622457620436083,3.320560106137493,0.44515843005512706,-0.42719504859241725,0.6561639260989328,0.43449656465317527,12.089658041665485,4.800172954211872,-1.162041535324374,0.5645498041579755,0.9519407213419964,-0.6086811811198218,1.758409741032807,28.407902535238172,-17.146937805017526,0.0,0.0,0.0,0.0,0.0,0.0,0.0,0.0,0.0,0.0,0.0,0.0,0.0,0.0,0.0,1717.1136392785618,1736.3202838128755,1725.8912460076572,1718.1862504071198,1719.4538247371588,1735.100790578795,1727.1384292214732,1718.1951646659547,28.683155097084427,0.3246047685748028,1.0925771570467069,-0.6313825850851005
116,1.1700000000000008,0.9994068384890601,-0.09679619309201204,3.30807541290383,0.44456864733736223,-0.43001570121180854,0.6580942673348824,0.42936831487303434,12.108356993911267,5.08565673320674,-1.3353987846674413,0.5190358627095045,0.9098371836557997,-0.612543458803297,1.9324735620909195,28.544074223423088,-17.458946995134504,0.0,0.0,0.0,0.0,0.0,0.0,0.0,0.0,0.0,0.0,0.0,0.0,0.0,0.0,0.0,1742.3699514359116,1735.200224261688,1732.2864687832719,1735.0368113741881,1739.5825763624075,1739.0851002434895,1734.4654679817124,1734.244255090978,28.123148349178088,0.3642840570800024,1.6132875463967364,-0.6281100090399775
117,1.1800000000000008,1.1205865810224167,-0.04452540700264541,3.2938464778613077,0.44373248593036946,-0.4330478024007545,0.6598839071346766,0.4244105451925121,12.127602425915228,5.367688266569937,-1.510650690731911,0.417895872005637,1.0003345634876737,-0.6158993745387427,1.933281008497545,28.020544842817685,-17.606657988892938,0.0,0.0,0.0,0.0,0.0,0.0,0.0,0.0,0.0,0.0,0.0,0.0,0.0,0.0,0.0,1727.0381739086545,1730.451199414076,1736.033538067797,1713.7096358733186,1727.7078129411861,1728.6016128566619,1729.8620255839744,1719.3559648738749,27.973283719633695,0.44426727779442154,1.6220246831459912,-0.6242752246111946
118,1.1900000000000008,1.2419564995023324,0.010532553597484893,3.277858951272846,0.4421211182694708,-0.4366084840565471,0.6619464679958876,0.41920021700586685,12.14626700165487,5.6427729021529975,-1.6871186220886971,0.3953140151591745,1.2928433372855035,-0.6180531352876626,1.8484211358220648,27.265343437259837,-17.740576512565774,0.0,0.0,0.0,0.0,0.0,0.0,0.0,0.0,0.0,0.0,0.0,0.0,0.0,0.0,0.0,1689.8757437497127,1732.6639526759384,1735.7533324464105,1681.6720389160284,1699.069623248292,1722.073626647795,1723.8735153751181,1692.5641615929414,28.02217014291622,0.5191417849235268,1.6063556823742613,-0.634971602936028
119,1.2000000000000008,1.3635108613762343,0.06831407890297543,3.260095755584036,0.4397672772671191,-0.4406061440609577,0.6644656262917437,0.4134687402180731,12.164584277336768,5.912881097575156,-1.86602452216585,0.42424614588122495,1.4388292640570575,-0.6192862043850909,1.8304917396392284,26.852931010416192,-18.03449852446759,0.0,0.0,0.0,0.0,0.0,0.0,0.0,0.0,0.0,0.0,0.0,0.0,0.0,0.0,0.0,1689.8577041871006,1721.5401441563242,1719.8970053879104,1688.971614095166,1693.6764115898186,1717.1768321850225,1717.1472924388606,1691.3808073205623,28.54817361737473,0.32412457305360654,1.2056907543126085,-0.6420582247286044
120,1.2100000000000009,1.4852488329789566,0.12878135342918914,3.240526478738883,0.437109206386266,-0.4447201468733215,0.6672650167007054,0.407329019521992,12.183061229483904,6.180170079522387,-2.048469490065423,0.47505103783179664,1.5141238492997382,-0.6213177814304313,1.8612014663599297,26.61432049699286,-18.41690994264855,0.0,0.0,0.0,0.0,0.0,0.0,0.0,0.0,0.0,0.0,0.0,0.0,0.0,0.0,0.0,1698.152614498084,1717.592967025665,1710.578954318088,1698.8564460428895,1700.5527686353448,1715.3232833780648,1710.8183552949254,1698.7658947640045,28.162397177051396,0.020247787251339078,1.1939467726363062,-0.6438029954250619
121,1.2200000000000009,1.6071760857808732,0.1919214431590341,3.219109674478633,0.43451605829232764,-0.44877517485734686,0.6698782370720768,0.4013225448626858,12.202588221662806,6.448080560440881,-2.235710182212351,0.39308291977997256,1.3619514406613915,-0.6240974504792509,1.9920191844491342,26.79763060376228,-18.923811293544812,0.0,0.0,0.0,0.0,0.0,0.0,0.0,0.0,0.0,0.0,0.0,0.0,0.0,0.0,0.0,1737.108063541204,1709.7904461583084,1711.2259840535398,1727.5794308273323,1729.712796461289,1719.0139326625313,1717.2751241097199,1723.2508848940072,27.484194302025948,-0.001255809550327388,1.6656599860147083,-0.643318802775394
122,1.2300000000000009,1.7292995072447988,0.2577280281600727,3.1958030842193916,0.4319709294251233,-0.45288855227546226,0.6719096168441472,0.39601836086447134,12.22196734809766,6.712358784185186,-2.425982773865699,0.1984163992823214,1.2877928643743424,-0.6272082702322472,1.9091079172799397,26.231618414910507,-19.139000834906827,0.0,0.0,0.0,0.0,0.0,0.0,0.0,0.0,0.0,0.0,0.0,0.0,0.0,0.0,0.0,1729.9804382496864,1696.055621008005,1710.1280216327734,1708.1223955264459,1723.2355988343172,1701.8051558461414,1707.3523240450193,1710.1075704532348,27.339242138332622,0.049832659670391605,1.4752098202086577,-0.6321586959788975
123,1.2400000000000009,1.8516094892547252,0.3261404439379021,3.170586664274448,0.4289014924269735,-0.4573993569889834,0.6737425964117745,0.3910246178954722,12.239731433929306,6.96885065023159,-2.6175338953029637,0.10230779734767602,1.4738260946130288,-0.6299294723325424,1.711529034448489,25.379684582331308,-19.24700472643881,0.0,0.0,0.0,0.0,0.0,0.0,0.0,0.0,0.0,0.0,0.0,0.0,0.0,0.0,0.0,1685.9960252977023,1699.014544796742,1709.9948155407174,1668.0756083061115,1690.567341641967,1692.3954514268603,1698.7083473309888,1677.941660425678,27.435980957681704,0.1518214760590828,1.4182768835856112,-0.637568410298248
124,1.2500000000000009,1.9740898484868976,0.3970884846670778,3.1434440956377463,0.4253747114882263,-0.46218912717035676,0.6756095578946858,0.3859913092715422,12.256165616200386,7.22012883381784,-2.8114671807696165,0.08075860520155617,1.4653960900465999,-0.630940819564572,1.600630268869807,24.97679714436085,-19.53096549450395,0.0,0.0,0.0,0.0,0.0,0.0,0.0,0.0,0.0,0.0,0.0,0.0,0.0,0.0,0.0,1686.833726125202,1685.0556307903012,1690.687869355824,1680.2140461433798,1684.7603521600959,1686.443235249846,1691.656387990022,1678.9467535614524,28.10846341137599,-0.10239038969996417,0.6419764546614926,-0.6459582736883771
125,1.260000000000001,2.0967306503093504,0.4705359673195192,3.1143456438966584,0.4218987972815748,-0.466899175910391,0.6774228990856309,0.3809262135650125,12.271908784717235,7.4690606885197806,-3.00882193782121,0.12129907017599507,1.4434735029114765,-0.6318071678327077,1.5498792429529118,24.800254389694132,-19.893036540667097,0.0,0.0,0.0,0.0,0.0,0.0,0.0,0.0,0.0,0.0,0.0,0.0,0.0,0.0,0.0,1690.25754134194,1687.6994746661812,1684.9421775865053,1690.2864176574012,1690.1680287996473,1688.0493139510004,1687.5024109874068,1688.0274595208316,27.725228839274635,-0.49337489204789736,0.024320237732613492,-0.654489563427951
126,1.270000000000001,2.219529710805622,0.5464774571031407,3.083250746575104,0.4189929976600782,-0.47129130859561247,0.678664860946083,0.3764882161118603,12.288001163784818,7.719740191380298,-3.21095939928055,0.0006626195646843259,1.0565866021182193,-0.633120902367176,1.6181603679026324,25.135476946189783,-20.393990502820536,0.0,0.0,0.0,0.0,0.0,0.0,0.0,0.0,0.0,0.0,0.0,0.0,0.0,0.0,0.0,1743.7893165802736,1673.514768070492,1679.8633929710861,1732.5274475574022,1728.4177881113615,1692.3513272695404,1693.7054914292376,1721.239555434755,26.98643410253121,-0.6758259049618869,-0.017987609799637906,-0.6588189702829096
127,1.280000000000001,2.3424869989004575,0.6249189078767884,3.050121720924014,0.41710861220308054,-0.47524986962558247,0.678592989500577,0.37372385747709097,12.3032071522493,7.967872153095872,-3.4148935993369323,-0.25786737079613264,0.574075067579218,-0.6353913234053391,1.4591404759141113,24.672076532390896,-20.41091826602237,0.0,0.0,0.0,0.0,0.0,0.0,0.0,0.0,0.0,0.0,0.0,0.0,0.0,0.0,0.0,1753.944130243798,1643.2649541411452,1663.6821881207761,1726.833776814658,1733.0038489673461,1665.3709037656706,1673.4285993668832,1716.5006370918666,26.89639197274793,-0.9618427614920178,-0.6843978270212312,-0.6367090256613133
128,1.290000000000001,2.465585458487657,0.7058104792360274,3.0149593226009634,0.415949182122009,-0.4789862796368381,0.6772822989200553,0.37262193894248546,12.316053232841533,8.20935554878205,-3.617209652665278,-0.46877458323134513,0.30816731862823343,-0.6388933114908871,1.1838303311471066,23.93730856309162,-20.157564313271426,0.0,0.0,0.0,0.0,0.0,0.0,0.0,0.0,0.0,0.0,0.0,0.0,0.0,0.0,0.0,1717.8507364925588,1637.1973169752066,1657.7286023685717,1688.5779618622003,1706.0844588781015,1647.177669783932,1657.6245374974953,1686.652243671051,26.996064036471076,-1.0748623436657556,-1.0601155862989489,-0.6343888170168642
129,1.300000000000001,2.5888012120301473,0.7890957179880752,2.977782326727607,0.4154689822584096,-0.48252461133178126,0.6747465278520988,0.37319250714853835,12.326783496675876,8.447524070417648,-3.8179524409359438,-0.7221921235848697,-0.1625002735545012,-0.63910891940678,0.9886560448677528,23.790154068462854,-20.006446208460815,0.0,0.0,0.0,0.0,0.0,0.0,0.0,0.0,0.0,0.0,0.0,0.0,0.0,0.0,0.0,1724.9855040723598,1615.7719791709098,1644.4303187536036,1699.189424526768,1705.1417011043652,1637.0992366382786,1654.4501820235846,1689.438191345937,27.472096606515727,-1.5303817665272001,-2.4478294192555072,-0.6387617260221473
130,1.310000000000001,2.712115270094236,0.8747634091350323,2.9386054328950704,0.41595985279937087,-0.485662319122703,0.6708844990956503,0.3755309594649449,12.335718533192427,8.686232981548132,-4.017073423266088,-0.8991708705435814,-0.5766685346338459,-0.6382880602620427,0.8058381115425561,23.923253590403704,-19.804262949075557,0.0,0.0,0.0,0.0,0.0,0.0,0.0,0.0,0.0,0.0,0.0,0.0,0.0,0.0,0.0,1723.9409045134887,1622.599794129806,1646.1818932289232,1703.593911489644,1708.5140476272827,1639.5469665709684,1654.715843234656,1695.6464366574612,25.960809145555004,-1.6531737917929983,-4.6914556292975815,-0.6410750277981452
131,1.320000000000001,2.8355101407115813,0.9628323209669102,2.8974480522711437,0.4179881939394774,-0.4880855756622137,0.665135351650388,0.3803331494132666,12.342998646558792,8.92852861563534,-4.213940425736298,-1.2300593932303732,-1.4659694006703743,-0.6361571764066373,0.6447367285442596,24.452152327263832,-19.52243713889512,0.0,0.0,0.0,0.0,0.0,0.0,0.0,0.0,0.0,0.0,0.0,0.0,0.0,0.0,0.0,1776.5319787160465,1592.9852286081805,1626.5336513191035,1747.6916400491507,1743.204913701888,1634.7261691584035,1652.0888699718903,1725.6302382850733,24.163739337925815,-1.5576488054808948,-6.125397524776643,-0.6429619349833079
132,1.330000000000001,2.958958109389054,1.0532982787236667,2.8543637522972167,0.42337844166334615,-0.4886693469515284,0.6562511146611597,0.3889568600637721,12.34588532300276,9.163640625460504,-4.400973727271734,-1.444686074511801,-2.9955706657432963,-0.635180428135649,0.12980329514711286,23.40156840861418,-18.209385614637696,0.0,0.0,0.0,0.0,0.0,0.0,0.0,0.0,0.0,0.0,0.0,0.0,0.0,0.0,0.0,1784.0062904114131,1485.7580656565813,1513.92359921645,1759.8991313119204,1731.616665932406,1549.5595844686031,1564.55915682363,1715.4223878241723,23.166055138170574,-1.8386263228223698,-6.897339979469258,-0.6117018252628164
133,1.340000000000001,3.082410020581925,1.1460631560458563,2.8094823808392357,0.43324353721636505,-0.4864644490703955,0.6437529608891462,0.40154016311864243,12.34376094251355,9.38785567947581,-4.572502604081684,-1.498063902276751,-4.448444232836181,-0.6364682318909687,-0.3718196057587164,22.21911942647914,-16.44162999503518,0.0,0.0,0.0,0.0,0.0,0.0,0.0,0.0,0.0,0.0,0.0,0.0,0.0,0.0,0.0,1728.9766687845374,1430.18730246882,1439.0811277933944,1718.2041135489321,1684.205013451324,1479.9270086633458,1485.9226781802379,1675.8680101533628,20.832749201470797,-1.7698606432795139,-6.776901995034694,-0.6013004913386734
134,1.350000000000001,3.205820652418813,1.241033498835714,2.762972224105748,0.4467053605998428,-0.48167451029433245,0.6278382669663544,0.41744831713250957,12.337828332981362,9.60568047897621,-4.726529398644132,-1.6828557732490304,-5.575163850971465,-0.6331365255461929,-0.7193129560469913,21.754532177032715,-14.609546233276482,0.0,0.0,0.0,0.0,0.0,0.0,0.0,0.0,0.0,0.0,0.0,0.0,0.0,0.0,0.0,1670.0544364526502,1418.6842114031222,1441.0577500034992,1662.0454740899313,1636.1094407230946,1456.1903947541646,1470.0873623789882,1634.0315430467806,18.145860585967384,-1.9302441625345519,-7.739423283962697,-0.5974337756919864
135,1.360000000000001,3.329149108762614,1.3381243372258274,2.715024904398387,0.46212319017874054,-0.4749854588522925,0.6093620131148588,0.43532620866484395,12.327056445872042,9.810135567825698,-4.859346510170072,-1.7266811702211746,-6.1112103509474505,-0.6280395875800703,-1.2514656679556424,20.0722265921911,-12.376617666008727,0.0,0.0,0.0,0.0,0.0,0.0,0.0,0.0,0.0,0.0,0.0,0.0,0.0,0.0,0.0,1538.6663071470157,1400.9816565435563,1415.2460733670318,1539.8718137453504,1523.4634189677959,1409.730669225196,1420.3825065911712,1527.4146147503618,22.105309593291256,-2.4457492361316433,-9.931973300446046,-0.569020224630984
136,1.370000000000001,3.4523415795842056,1.437158105437946,2.665860605874226,0.47882458540321243,-0.46656214360506876,0.5885700628118808,0.4545679968164318,12.31058909010152,9.993616478668725,-4.969981097427825,-1.8397871357497748,-6.882960843497497,-0.6221197719564174,-1.8278125928929967,17.85334836983843,-10.16378019364872,0.0,0.0,0.0,0.0,0.0,0.0,0.0,0.0,0.0,0.0,0.0,0.0,0.0,0.0,0.0,1456.412236754362,1284.2464750640079,1301.4933130731645,1456.42989595452,1425.1253610988726,1311.6761182401667,1323.0025300973562,1428.3533621449178,24.16137351323842,-3.129161916945124,-10.0,-0.5238009826022125
137,1.380000000000001,3.5753642492636186,1.5380824819281755,2.6156801130374374,0.4975583673934044,-0.4555259805415153,0.5638360104674752,0.47646689852351987,12.294288106396658,10.197497636690418,-5.063029924639475,-2.1704787933662057,-8.32807532633749,-0.6090524849120579,-1.6057757879313073,21.634460067284422,-8.375985955206389,0.0,0.0,0.0,0.0,0.0,0.0,0.0,0.0,0.0,0.0,0.0,0.0,0.0,0.0,0.0,1645.3880494339003,1331.9951379019813,1378.8958338328036,1634.8954377199093,1595.1717192569165,1420.3574495375178,1441.6234722645474,1596.0620515426042,24.780067469496647,-3.4294575978692476,-9.999999999999833,-0.48338943630448666
138,1.390000000000001,3.6982281798161165,1.6412096824055873,2.564679049328493,0.5175177893399856,-0.4420566431571905,0.5343630622665535,0.5012159012265693,12.278198964719774,10.431668387559592,-5.132611281387031,-2.675406594625923,-9.073462937888626,-0.5963145489786815,-1.7370305338353376,24.140287254583725,-5.688065085516669,0.0,0.0,0.0,0.0,0.0,0.0,0.0,0.0,0.0,0.0,0.0,0.0,0.0,0.0,0.0,1676.8266994451474,1456.5872993723929,1527.9407505720833,1649.0540886885515,1652.1574524326252,1494.7488743877484,1536.788015095554,1648.2205889109366,26.75367221181639,-3.022984350066079,-9.999999999999249,-0.4994845580480259
139,1.400000000000001,3.8209149559748785,1.7467564993373788,2.513127669939685,0.5368642622340484,-0.42725163848111664,0.5011380745301977,0.5273456471871728,12.258245311731823,10.67878082440416,-5.172422506887113,-3.061985497439632,-9.492483607398244,-0.5791427836691041,-2.2617827346067543,24.9018218946091,-2.5580634709694294,0.0,0.0,0.0,0.0,0.0,0.0,0.0,0.0,0.0,0.0,0.0,0.0,0.0,0.0,0.0,1657.3521986297853,1521.914855519944,1592.170103531063,1638.4440839461472,1642.4536167844074,1541.5930060265066,1590.97742218349,1641.3482584302844,27.960512593695558,-3.0148221731464493,-9.999999999949281,-0.49343302871891986
140,1.410000000000001,3.943374947863582,1.8548394664012182,2.4613465167338466,0.5552758393638397,-0.4109478501258479,0.4654521804299073,0.5533036005926332,12.232715417809114,10.940061793319364,-5.177732980654932,-3.030050759797999,-9.72153042246266,-0.5643016758781064,-2.85748506650485,26.480889975049493,1.086023587093976,0.0,0.0,0.0,0.0,0.0,0.0,0.0,0.0,0.0,0.0,0.0,0.0,0.0,0.0,0.0,1682.5558283075295,1628.752579265188,1651.003712181942,1693.442450852357,1683.213112794103,1635.6798204046236,1658.738336162356,1691.0417712188532,27.82647828388039,-3.585048493094503,-10.0,-0.45318875058914915
141,1.420000000000001,4.065545582400868,1.9655878712639498,2.40969901941806,0.5726277745220657,-0.39305373188897297,0.42813365414590754,0.5781935401591152,12.20008920914296,11.2101513883503,-5.1454345107944865,-3.0307765145778793,-9.845777986841295,-0.552031304790548,-3.6332416591680072,26.97894872755313,4.905606182716404,0.0,0.0,0.0,0.0,0.0,0.0,0.0,0.0,0.0,0.0,0.0,0.0,0.0,0.0,0.0,1706.2118080337834,1684.4638637135,1693.9733409120292,1725.2622198276267,1707.6639551447608,1687.6791469069703,1699.0975686409786,1723.3636275633544,27.74606523756483,-3.757015706522789,-10.0,-0.4246872115255328
142,1.430000000000001,4.1873471385612735,2.0790166212098042,2.358556326010516,0.5882972834369573,-0.37429168473184626,0.388951567108796,0.6021035787012932,12.158604634678605,11.473612038127909,-5.077343385941855,-3.33597698721132,-9.91315369650437,-0.5369726481911059,-4.594747847985303,25.793249157358034,8.361342145096096,0.0,0.0,0.0,0.0,0.0,0.0,0.0,0.0,0.0,0.0,0.0,0.0,0.0,0.0,0.0,1707.248284692614,1673.2218510917291,1711.7565113385517,1708.8946608925871,1700.450476275758,1680.8205431675785,1706.699005395557,1713.4969578838973,29.175768471002193,-3.6456818344485593,-10.0,-0.3718196440438944
143,1.440000000000001,4.308683099471957,2.1950126511093258,2.3082647727342054,0.6019296586335642,-0.35506094359484214,0.34783083804341236,0.6250008963968283,12.10676158671438,11.722879582824067,-4.9754680673986185,-3.5549893925976135,-9.949693792799113,-0.5190918536306868,-5.684206525501168,24.176404409297803,11.664948352549054,0.0,0.0,0.0,0.0,0.0,0.0,0.0,0.0,0.0,0.0,0.0,0.0,0.0,0.0,0.0,1701.923822322327,1671.169848190959,1715.1223285611875,1703.621842919599,1696.085871149216,1677.7612677153907,1709.760312414431,1708.0076411402374,31.26313615828288,-3.068734444893005,-9.999999999999716,-0.38429113756003663
144,1.450000000000001,4.429442814111218,2.313446747756981,2.259175324828119,0.6136389395237561,-0.3350981738086711,0.3053004370574307,0.6464890632816578,12.043110157516024,11.962169886054028,-4.836042027562138,-3.5996600490329103,-9.969635320937854,-0.4966672318013108,-6.922908852391885,23.27921939259525,15.56720555382718,0.0,0.0,0.0,0.0,0.0,0.0,0.0,0.0,0.0,0.0,0.0,0.0,0.0,0.0,0.0,1730.5682730832518,1718.256192229461,1753.6583251554002,1753.4944873913037,1731.8111767876183,1722.078389924127,1754.7542709516395,1755.706388789209,33.411370353352105,-3.0053571596032795,-9.850224993262302,-0.38186201055858576
145,1.460000000000001,4.549500489284423,2.434232114390066,2.2116873526531537,0.6237900829641316,-0.31371332552598313,0.26232837004107823,0.6660733503561163,11.966194699647628,12.192903902264103,-4.654652138633214,-3.3204837331309687,-9.980854241340696,-0.47660676195451573,-8.272366398905717,22.3027481646092,19.836908963910105,0.0,0.0,0.0,0.0,0.0,0.0,0.0,0.0,0.0,0.0,0.0,0.0,0.0,0.0,0.0,1778.6538032310602,1797.9861137600342,1796.392896474098,1823.3208387714435,1788.7028512782101,1795.7306382940253,1805.4244702424114,1819.4243273616362,34.78830245933402,-3.4081062417387322,-9.999999999999998,-0.3535875035219621
146,1.470000000000001,4.668720289866898,2.5572642118505904,2.1662294817900616,0.6324442632618462,-0.2908961117628616,0.21942291388389903,0.6835548923759733,11.875494323378783,12.410496549894427,-4.430126455174082,-3.172030837806994,-9.914756564023246,-0.4601006756982546,-9.654650002550724,20.724030659655668,24.088846060291935,0.0,0.0,0.0,0.0,0.0,0.0,0.0,0.0,0.0,0.0,0.0,0.0,0.0,0.0,0.0,1836.262455558986,1866.2771563376893,1861.7230597900734,1876.0682004570833,1846.4662682790436,1863.3892310527535,1865.8162915001228,1877.2098365075326,34.8859862177613,-3.522479169085795,-10.0,-0.34069442332376754
147,1.480000000000001,4.786965288707451,2.682365385308072,2.123211594565926,0.6392964358116571,-0.26732657088370393,0.17595866816438213,0.6991960517307637,11.771284314573364,12.605006144121933,-4.1678563612216895,-3.3129151021209213,-9.956456191898603,-0.4429370013628675,-11.001213455676506,18.03346635977654,27.583242216427273,0.0,0.0,0.0,0.0,0.0,0.0,0.0,0.0,0.0,0.0,0.0,0.0,0.0,0.0,0.0,1893.0757618171256,1885.9365780693633,1906.5900891136007,1911.1343143932402,1890.839229200662,1893.090258847005,1907.3230930383838,1913.6866650466911,34.846330112667275,-3.3893155609065473,-9.999999999999998,-0.28938451297751316
148,1.490000000000001,4.904104957854065,2.8092453825811474,2.0829562425114094,0.6441911571312858,-0.24328959508057238,0.13151787013988356,0.7131135784945164,11.65468552123105,12.764478291607428,-3.8798120072103095,-3.4251131112020423,-9.972780278289278,-0.42585355613297293,-12.184959758823055,14.159735617987224,29.674331536912568,0.0,0.0,0.0,0.0,0.0,0.0,0.0,0.0,0.0,0.0,0.0,0.0,0.0,0.0,0.0,1900.7504173599843,1888.0667656653648,1914.13359294121,1911.6960077443553,1898.0011573624158,1892.154734531866,1911.4780940537364,1913.9842839645094,33.61156713250273,-3.2005909633866994,-9.642364970879196,-0.28315815806093275
149,1.500000000000001,5.020021507550461,2.9375179176721806,2.045670456052186,0.6471835248401488,-0.2186519370520706,0.0865395490467279,0.7251591011975556,11.526848691875008,12.88297550362159,-3.575104074615061,-3.4060146605895714,-9.982819067886537,-0.4051027380162281,-13.256123182207702,9.93668846431639,31.044766022913617,0.0,0.0,0.0,0.0,0.0,0.0,0.0,0.0,0.0,0.0,0.0,0.0,0.0,0.0,0.0,1891.5636239410471,1889.4287942652159,1912.9145742002659,1917.447223288992,1891.922183396355,1889.705890305104,1912.8731639415028,1916.7207092226279,21.109340528514625,-2.8645830382537913,-8.465305973141405,-0.27998184512206786
150,1.5100000000000011,5.1346159367847015,3.0667493188622603,2.0114589990947938,0.6483469635644811,-0.19348882185635533,0.04183547804833146,0.735158543057091,11.390899210196299,12.95561910728379,-3.267456750304667,-3.3021823624393436,-9.815017615416876,-0.38432529990419256,-13.921068439572082,5.251504880691371,30.785640465236686,0.0,0.0,0.0,0.0,0.0,0.0,0.0,0.0,0.0,0.0,0.0,0.0,0.0,0.0,0.0,1842.5263784724877,1875.5317809691703,1887.3548938267884,1875.9419168335703,1849.7726228198908,1866.419820589961,1881.542311356379,1877.4102863660312,8.879380932999961,-2.6843229833459987,-8.441770311020761,-0.25976511858051166
151,1.5200000000000011,5.247900984998559,3.196390649314291,1.979993002603349,0.6478207942651597,-0.16882793310381258,-0.0009170204026929883,0.74284891236047,11.26925104526856,12.962696290392024,-3.0413456825271856,-3.075797379819209,-9.155369575619384,-0.36419699508897985,-11.648101494522223,-1.4714824053285724,19.75081877664353,0.0,0.0,0.0,0.0,0.0,0.0,0.0,0.0,0.0,0.0,0.0,0.0,0.0,0.0,0.0,1415.7665504166457,1553.7071770615476,1553.1731831362538,1467.87878820371,1425.1830389608538,1512.9994708890054,1516.1622079575131,1467.8765516627925,9.070590255289863,-2.802408896048723,-9.263431692316546,-0.2525579878327887
152,1.5300000000000011,5.360102415969125,3.32582410681819,1.9502027746952393,0.6458675970881332,-0.14487646630999598,-0.04131017856600033,0.7484379237371491,11.175131689810385,12.917861052487426,-2.933460193360703,-2.8786093041275955,-8.83352099331078,-0.3460325272910444,-8.686937229224867,-5.772234388880193,7.709916844120368,0.0,0.0,0.0,0.0,0.0,0.0,0.0,0.0,0.0,0.0,0.0,0.0,0.0,0.0,0.0,887.5628437697433,1041.7487245967766,1039.4772695450297,968.3917627791419,877.4606430892034,1003.6170132483636,1004.9414773907764,950.5081546779171,8.838350331832658,-2.65528609700572,-9.318887070066362,-0.2131316035543642
153,1.5400000000000011,5.471423114686519,3.4546843771787246,1.9212248965531178,0.642493963570495,-0.12045980871419416,-0.08108107155016793,0.7524073372158805,11.08902466377497,12.851822849991947,-2.8634897569024584,-2.8510177892934525,-9.053423711231684,-0.3291855364560318,-8.610833282515884,-7.234004415987982,6.646869631928176,0.0,0.0,0.0,0.0,0.0,0.0,0.0,0.0,0.0,0.0,0.0,0.0,0.0,0.0,0.0,967.6844043201289,938.1130521166149,953.3967196646303,1018.8678873295316,949.7309530700768,960.4784580713989,975.3813400877929,997.0725512472142,6.8621585073768046,-2.2493520396755753,-9.39184656638181,-0.19801773348910703
154,1.5500000000000012,5.581885171381679,3.582815634556897,1.892900591810791,0.6375892711029014,-0.09491038230372126,-0.12095245434238866,0.7548790926327108,11.003568823734007,12.772323383465078,-2.803127015042578,-2.752322082699462,-9.168490812939082,-0.3113091780664523,-8.498899793190517,-8.507765275510337,5.577257629918009,0.0,0.0,0.0,0.0,0.0,0.0,0.0,0.0,0.0,0.0,0.0,0.0,0.0,0.0,0.0,951.0101099941502,924.3203249106045,945.6594765950321,1012.0154040136598,947.1961754694227,928.514533306166,954.1466291144546,1001.892283960288,5.844077589986372,-2.0470533216929843,-9.529254813607684,-0.2060441943736248
155,1.5600000000000012,5.691515336343968,3.7100974573153795,1.8650752149920904,0.6311745939222702,-0.06812749196002948,-0.16018345571273276,0.755856161807404,10.923518601151777,12.682708613294368,-2.766123304913356,-2.490511179374076,-9.27080960218837,-0.2930913366778791,-7.785759620558608,-9.321245248266052,2.793966471669851,0.0,0.0,0.0,0.0,0.0,0.0,0.0,0.0,0.0,0.0,0.0,0.0,0.0,0.0,0.0,820.8945559491959,831.1857345543528,826.9290631629417,914.3835295269346,820.4833612967903,823.3391556635087,834.8414453918934,896.7129371844908,6.674352659280939,-2.1320945736650194,-9.999999873088294,-0.20429341887952443
156,1.5700000000000012,5.800374821532084,3.836449716042616,1.8375043667994735,0.6232316859513218,-0.04003682656168351,-0.19849836409972524,0.7553659494542203,10.849198583318596,12.586933203864723,-2.751138002070373,-2.2683782556987078,-9.391601034598134,-0.2782495435709977,-7.247237591652578,-9.803499764618806,0.7844940123287181,0.0,0.0,0.0,0.0,0.0,0.0,0.0,0.0,0.0,0.0,0.0,0.0,0.0,0.0,0.0,757.328906433963,768.7147409108253,747.3523292552458,851.059190467455,757.8518702211287,763.6689667734056,761.8651322554858,831.2755939502387,9.049969675566775,-2.218554293897813,-9.999999999999964,-0.20067323310331245
157,1.5800000000000012,5.908503288603126,3.961813561355298,1.8100296411251675,0.6135927138275171,-0.010680402453720263,-0.23647715293115099,0.7533050289774963,10.776564532048694,12.484659958803759,-2.744525026764237,-2.210187547601686,-9.680083429860376,-0.26497213992473745,-7.214944766884557,-10.514203214427198,0.3819127982982451,0.0,0.0,0.0,0.0,0.0,0.0,0.0,0.0,0.0,0.0,0.0,0.0,0.0,0.0,0.0,850.0236987943507,775.6526004617831,777.833330916772,906.6563583250922,835.8130570518183,800.3398543425258,805.4861214057435,886.6460551623421,12.346381764137803,-1.8830433226644145,-10.0,-0.16328541102263275
158,1.5900000000000012,6.0158934961891015,4.086101645678066,1.7826397734379569,0.6021520376546878,0.019578134032741633,-0.2744515038316938,0.7494704745756333,10.700894726481716,12.370803621718169,-2.7323365809046036,-2.22120024802035,-9.822029445855879,-0.2539095753438651,-7.637948236016712,-11.86667080443371,1.2688148993729165,0.0,0.0,0.0,0.0,0.0,0.0,0.0,0.0,0.0,0.0,0.0,0.0,0.0,0.0,0.0,975.1639697084404,926.7811832297983,944.0523110459065,1003.7402147535369,975.5117817296153,941.8493025284325,954.0915858772393,1006.2134488959449,27.454117450780057,-1.926991249791157,-9.999999999999998,-0.14828557344703577
159,1.6000000000000012,6.122498670636085,4.20916414382328,1.7554341492163723,0.5889785077431514,0.050452248281311445,-0.31173329395220123,0.7438959883624335,10.61921734754473,12.238399280243744,-2.7068251676978825,-2.043904931642384,-9.902764225023255,-0.24030605751235418,-8.296325756685263,-13.958156270131639,2.746194511126898,0.0,0.0,0.0,0.0,0.0,0.0,0.0,0.0,0.0,0.0,0.0,0.0,0.0,0.0,0.0,1110.2296332774815,1110.411232108892,1113.2299980239213,1162.24599511884,1123.710832167474,1114.5906944757126,1130.0747394777325,1161.657236734971,38.63006213048431,-1.9983401776211571,-10.0,-0.14631438486974396
160,1.6100000000000012,6.228169778909777,4.330618748741599,1.728784049373685,0.5741277089977606,0.08171920081918789,-0.34800020858254116,0.7366106168152642,10.509449059795553,12.03793538561297,-2.6090637236490335,-1.9925660770708622,-9.947246997112213,-0.22520802316053756,-11.966108884641002,-23.10975153891448,12.18635639636334,0.0,0.0,0.0,0.0,0.0,0.0,0.0,0.0,0.0,0.0,0.0,0.0,0.0,0.0,0.0,1650.8484844867235,1653.3113470544945,1661.0466707964335,1681.4369105131784,1679.392569648863,1680.5823770891875,1690.017594522435,1705.8551099806612,40.35691933839532,-1.8065914231890992,-9.999999989922747,-0.13388162105394646
161,1.6200000000000012,6.33258729986107,4.449602711390616,1.7034971565688788,0.5576829630072229,0.11293301367094206,-0.38339122374279083,0.7274936540971947,10.370552287992204,11.744413858921826,-2.4404830737682244,-2.0012927308785167,-9.970701772962592,-0.21163958534432378,-14.44134680250464,-32.42140631348356,17.914348592456886,0.0,0.0,0.0,0.0,0.0,0.0,0.0,0.0,0.0,0.0,0.0,0.0,0.0,0.0,0.0,1980.961425595899,1979.2297373308018,1990.3369689842157,1997.3195893614127,1996.917953857505,1997.1761095952222,2006.1983952077471,2013.6224538314461,42.20176183601451,-1.590591527626334,-9.782355909926979,-0.12304715510164309
162,1.6300000000000012,6.435567883467305,4.565333777452826,1.6799771176187623,0.5396842961251475,0.14403503401730244,-0.41766259243907744,0.7166259333631514,10.22611401559817,11.395696975719604,-2.2665066550667423,-1.8996399223138245,-9.983420081838261,-0.19889352185788092,-14.21677414650624,-36.32004716521209,16.395961983656893,0.0,0.0,0.0,0.0,0.0,0.0,0.0,0.0,0.0,0.0,0.0,0.0,0.0,0.0,0.0,2035.4979493614428,2041.0332269747175,2046.1447815126035,2056.600272845479,2040.1778360547946,2042.8410874750668,2050.615031205858,2057.4477902743397,42.477952645623404,-1.0976918504598139,-8.869238295793684,-0.11040179057961884
163,1.6400000000000012,6.537122729411357,4.677391745027393,1.6581022747219947,0.52025105020998,0.1749353140897192,-0.4502879500216092,0.7042565176873273,10.085811086974847,11.010234811842446,-2.112365600354709,-1.7417552930401143,-9.885169482180544,-0.18636598580525168,-13.709776170459875,-39.88858274075113,14.214703438064191,0.0,0.0,0.0,0.0,0.0,0.0,0.0,0.0,0.0,0.0,0.0,0.0,0.0,0.0,0.0,2072.3202017930603,2098.352544104736,2097.048847051671,2098.7949472756627,2081.3600930721946,2094.8000133635855,2098.8947527097166,2101.14462136862,43.00714871682901,-0.8158808674513338,-7.865437727485714,-0.07744440562382869
164,1.6500000000000012,6.637313122456783,4.785454399812012,1.6376302233653988,0.4999306536796548,0.20499070528547114,-0.4801466598577306,0.6910190571073007,9.953928507207657,10.598738425272385,-1.9872840448531868,-1.407276292217126,-9.397090447267717,-0.17318765860815982,-12.724644835513388,-42.05477415554881,11.078328764918766,0.0,0.0,0.0,0.0,0.0,0.0,0.0,0.0,0.0,0.0,0.0,0.0,0.0,0.0,0.0,2047.8313658728594,2138.6929256065655,2125.3268614453655,2087.685476298037,2070.0881592740525,2119.615918528371,2116.6985939786045,2096.8450317196975,42.91797426105401,-0.6846053758958849,-6.858702419544736,0.0012408364190424487
165,1.6600000000000013,6.736234923301484,4.889295383248206,1.618255409446425,0.4795928642558548,0.23323245598495795,-0.5063464820301476,0.6776478039260388,9.83217169377712,10.166194009042975,-1.8926540716671671,-1.1088301790061457,-8.676644827593336,-0.15812857890087648,-11.691248418774336,-44.05838297295617,8.102641974268243,0.0,0.0,0.0,0.0,0.0,0.0,0.0,0.0,0.0,0.0,0.0,0.0,0.0,0.0,0.0,2038.680302205379,2169.3061022992865,2157.420423296014,2083.824791782769,2065.8816099261944,2146.1753880648916,2144.256721710952,2098.424913317161,42.48344724204643,-0.43646849041514946,-6.300254181413708,0.04095436917353304
166,1.6700000000000013,6.833994311426245,4.988731607507041,1.5996746788577114,0.45999445451354254,0.2589107116998588,-0.5288548064668248,0.6645923102630652,9.721593526570391,9.719103220477681,-1.828461352236794,-0.8982913459191619,-7.826264630149731,-0.13543236316293233,-10.551967792080674,-45.22009208491262,5.096065078412204,0.0,0.0,0.0,0.0,0.0,0.0,0.0,0.0,0.0,0.0,0.0,0.0,0.0,0.0,0.0,2024.1141259389774,2170.088470255773,2174.18760283431,2073.824156874417,2050.523412902537,2146.316925588781,2156.8284696467194,2091.6176002061616,41.91603868962585,-0.27021823749167617,-5.551958302149326,0.054905871055820746
167,1.6800000000000013,6.9307054080759585,5.083654256371026,1.581587819300913,0.441358965833848,0.282046635033241,-0.5480290474208558,0.6521626500555604,9.622529536427239,9.26449537356198,-1.7935935176645632,-0.6628384811830692,-7.121882377802933,-0.10812523637094691,-9.400398163403878,-45.7431654095668,2.252591802461179,0.0,0.0,0.0,0.0,0.0,0.0,0.0,0.0,0.0,0.0,0.0,0.0,0.0,0.0,0.0,2020.9902505000853,2150.527299274703,2158.3178836705824,2072.743924431228,2041.2601243073118,2131.775730911726,2145.817118849115,2083.686784569746,40.61100186923307,-0.4539533262449402,-3.7011395469773616,0.02026590881917161
168,1.6900000000000013,7.026483097585579,5.174014553256506,1.5637121361120065,0.42374055970966307,0.30287867189642426,-0.5642605282711866,0.6405610856134809,9.534852342134664,8.807266483264893,-1.7857857217335007,-0.4647951540820567,-6.388683354907844,-0.08160436660749816,-8.280522171737914,-45.85506032552189,-0.3319098775920182,0.0,0.0,0.0,0.0,0.0,0.0,0.0,0.0,0.0,0.0,0.0,0.0,0.0,0.0,0.0,2008.8448006445499,2136.828715452159,2144.741984029731,2056.3998755919793,2030.3118635147541,2116.841107538377,2130.1478475289805,2069.044871611968,39.690850171449185,-0.4562998537701927,-1.9776853997827588,-0.021112357059640624
169,1.7000000000000013,7.121439830161265,5.259825755022406,1.5457883958268925,0.4083484044198438,0.32030946350655315,-0.5775562468380616,0.6301445944656225,9.458120475256564,8.355992277993082,-1.8026536837360783,-0.4695299065044162,-5.114063730863302,-0.06351985627181714,-7.263221613833082,-44.98958608514947,-2.627817727880011,0.0,0.0,0.0,0.0,0.0,0.0,0.0,0.0,0.0,0.0,0.0,0.0,0.0,0.0,0.0,1950.8762407905508,2137.475787115858,2148.4894914916317,1974.5321272024066,1986.9138973003044,2103.7388070362276,2114.2430603997823,2008.8992281906287,39.351245822328806,-0.14453067059639058,-0.8028321145651522,-0.016562983560351234
170,1.7100000000000013,7.215673661539744,5.341161214364841,1.5275938768747923,0.39661226777841646,0.33316633484243896,-0.5876727523173773,0.6215622563822838,9.389781414393333,7.912014813939792,-1.8389762276524362,-0.4632047774875011,-3.6470176423185032,-0.05430585139357172,-6.551547643059763,-44.248144158697045,-4.322293023859336,0.0,0.0,0.0,0.0,0.0,0.0,0.0,0.0,0.0,0.0,0.0,0.0,0.0,0.0,0.0,1913.0903741502214,2135.5541828043756,2141.3958584747907,1921.9718020409496,1953.061271575139,2099.460934005689,2104.0264621521505,1961.552185901315,38.56625970569613,0.10478030146459219,0.9635684644371243,-0.01653747045795982
171,1.7200000000000013,7.309253501375233,5.41807893338634,1.5089639857187211,0.3886563525872532,0.3417315377465777,-0.5945306896754019,0.6153852896657693,9.32690633378446,7.471942612789016,-1.8887877416350318,-0.2926515149729161,-2.3291875160478486,-0.047441303363400404,-6.105922336665515,-43.92857113402293,-5.429483178278183,0.0,0.0,0.0,0.0,0.0,0.0,0.0,0.0,0.0,0.0,0.0,0.0,0.0,0.0,0.0,1906.6034802524925,2124.6334574457164,2120.4238962198633,1925.7018741140378,1942.9890610430493,2092.4221874390064,2092.8055608443497,1955.0897998255016,32.82022698111261,0.38921439201338115,2.105087285586859,-0.02331602257207533
172,1.7300000000000013,7.402223824309835,5.490628250022632,1.489789845087422,0.38456941666676075,0.3461795605446712,-0.5979548097195349,0.6121406057099631,9.267570604220737,7.0390383632074744,-1.9469483820201663,-0.08732890976195151,-0.7846463724709265,-0.041175864621621996,-5.838760744415694,-43.07356036573928,-6.019810932049285,0.0,0.0,0.0,0.0,0.0,0.0,0.0,0.0,0.0,0.0,0.0,0.0,0.0,0.0,0.0,1868.6935341304736,2120.8764196873753,2109.72585087195,1893.7691672767799,1915.1677308518035,2080.2253584761897,2075.5716786097114,1930.331576307615,37.22472089617932,0.47157041772701763,2.926822333626894,-0.006320500529477677
173,1.7400000000000013,7.494615092754301,5.559028693625423,1.4700097179454377,0.3843747332072013,0.346622470063914,-0.597894270988837,0.6120713752802128,9.211036978888508,6.64912709855033,-2.0093856953765896,0.15832582160549905,0.555303417253263,-0.036783637687155486,-5.5902111992054415,-37.4808243007374,-6.2695240501597915,0.0,0.0,0.0,0.0,0.0,0.0,0.0,0.0,0.0,0.0,0.0,0.0,0.0,0.0,0.0,1721.6058505352544,1972.9656795617473,1954.7487834240983,1750.444283243634,1754.908446327172,1931.3702694053575,1920.3385335033508,1773.006255483497,38.91299149333982,0.51164089447381,3.346030002987725,0.06536579513334353
174,1.7500000000000013,7.586441083749776,5.623539560241841,1.4496135157250214,0.38744490381386687,0.34371448210720656,-0.5949066109846497,0.6146811575973327,9.153799125428023,6.247618921956595,-2.068839560947282,0.314332515363838,1.6511486150256787,-0.0323264814025336,-5.812998478486264,-41.12903696636927,-5.668009309469202,0.0,0.0,0.0,0.0,0.0,0.0,0.0,0.0,0.0,0.0,0.0,0.0,0.0,0.0,0.0,1857.2896435029163,2054.0390449043744,2042.8185373617334,1881.194190594173,1893.734704331582,2032.0333502642466,2026.4526486118384,1910.4698159867648,39.557508740918514,0.5770488224734439,3.947693929666274,0.08212006137696418
175,1.7600000000000013,7.677682797904283,5.683910857045345,1.4286584150923536,0.39302058983339416,0.3381365197136226,-0.5896963429924261,0.6192388336210263,9.094072677804144,5.82448008805635,-2.120675609742132,0.412025386483553,2.429494602553027,-0.019942610448326518,-6.097815472871915,-42.671344876976214,-4.771794984508304,0.0,0.0,0.0,0.0,0.0,0.0,0.0,0.0,0.0,0.0,0.0,0.0,0.0,0.0,0.0,1929.514486212559,2067.8331649755987,2073.4930967206933,1958.2277756198039,1950.474965892614,2053.093732334604,2061.825911046228,1975.5564126003073,40.254444475384346,0.615350796492767,4.329592004355196,0.07177316566232667
176,1.7700000000000014,7.768312086023926,5.74000789860353,1.4072339686120274,0.40050912116763804,0.330357962724288,-0.5826909078964962,0.6252418461531036,9.031196712795568,5.394501100819559,-2.162309691193363,0.4955359003558646,3.1356621790557826,-0.004042183728753522,-6.4486430740426925,-43.022032180772385,-3.6396754959366895,0.0,0.0,0.0,0.0,0.0,0.0,0.0,0.0,0.0,0.0,0.0,0.0,0.0,0.0,0.0,1957.866728627482,2075.550811503254,2084.573464825335,1984.318096188398,1977.1435257935843,2060.0155934290274,2070.94041212132,1999.955728060323,41.32224061887509,0.6084635472915194,4.440056802833341,0.05123527887479488
177,1.7800000000000014,7.8582930306106205,5.791789613713139,1.3854552937772593,0.40955256030546566,0.32064313653026244,-0.5740941968604404,0.632353170684262,8.964241700997775,4.961571206110816,-2.191090438298384,0.5555969278967706,3.6864309409556517,0.00909658149754156,-6.898302984778226,-43.27488555055137,-2.244089567613905,0.0,0.0,0.0,0.0,0.0,0.0,0.0,0.0,0.0,0.0,0.0,0.0,0.0,0.0,0.0,1990.6650239806347,2083.7607011308955,2090.353220153136,2010.1492311338814,2005.336005233354,2072.3690716907126,2080.188268196555,2021.825306795441,42.31255976516043,0.5526296677848592,4.449796265095463,0.017920855017774538
178,1.7900000000000014,7.947579519966229,5.839221316591661,1.3634645888655748,0.41963050723598927,0.3094684105958684,-0.564279431240801,0.6401001981867304,8.892136735036152,4.524161432767653,-2.204301170679087,0.5808396002997013,4.030345046987441,0.017276198631592646,-7.45361856403548,-43.77187935638194,-0.5887305704295187,0.0,0.0,0.0,0.0,0.0,0.0,0.0,0.0,0.0,0.0,0.0,0.0,0.0,0.0,0.0,2037.5694457990523,2096.451841245829,2100.178491570733,2048.1026425794967,2045.999059237721,2091.5336472748522,2095.4388606892967,2055.083514836423,42.619932972719596,0.4062523039506432,4.263645309054227,0.04536363169085349
179,1.8000000000000014,8.036115809148638,5.8822576857719575,1.3414279247348138,0.43025837047868515,0.29731549587290507,-0.5536808236408785,0.6480114011954061,8.814097931713933,4.082762938547719,-2.2000550483705523,0.5643649555985351,4.221114000364462,0.01930183364258527,-8.073116930082946,-44.10903099659258,1.210662445416677,0.0,0.0,0.0,0.0,0.0,0.0,0.0,0.0,0.0,0.0,0.0,0.0,0.0,0.0,0.0,2080.1408897807223,2110.7015819746043,2111.0900894848505,2080.0349749992047,2084.1287078279624,2109.6658670382803,2108.940796794862,2084.358943888671,42.72254351729762,0.281633836933291,3.9762590422782735,0.05679495756626864
180,1.8100000000000014,8.123841286528895,5.9208835428526525,1.3195217316761887,0.44103877316676177,0.28459257808949356,-0.5427997367510176,0.6556373317947652,8.7299837306395,3.6431354224125347,-2.1783339863044486,0.48040577402951595,4.2351973484130365,0.022386697086372316,-8.683028255026315,-43.721624439772455,2.9301761856150854,0.0,0.0,0.0,0.0,0.0,0.0,0.0,0.0,0.0,0.0,0.0,0.0,0.0,0.0,0.0,2102.0205542106296,2101.649142050271,2111.4724236951065,2100.727340171117,2099.5802694558756,2104.9401899783534,2111.7622238425,2101.3495808514776,42.76535186748803,0.13281635988066398,3.575444873415818,0.07071598477342082
181,1.8200000000000014,8.210695245555527,5.955140473514675,1.2979165708388425,0.45158006120034333,0.2717187431094521,-0.532118468088715,0.6626419160362805,8.639795159852913,3.209399749993654,-2.140019597232281,0.37789777785899337,4.1103629347957895,0.02752498957990718,-9.291216599274676,-43.04720738158885,4.5450183717057335,0.0,0.0,0.0,0.0,0.0,0.0,0.0,0.0,0.0,0.0,0.0,0.0,0.0,0.0,0.0,2116.160997176204,2091.646070244283,2105.786414229105,2113.429020064458,2110.1848421158975,2098.2087544507053,2108.294291622444,2111.066946466094,42.72859653133701,-0.03561828645016413,3.090224745063324,0.08171319625993616
182,1.8300000000000014,8.296617050458813,5.985096620581281,1.2767728354552328,0.46155751776516707,0.25909187600166866,-0.5220401600746213,0.668812476598379,8.543564357874049,2.783125644846328,-2.0862697978592903,0.25164915040077074,3.8572202437738143,0.03405562720463916,-9.892195891751498,-42.271340317260986,6.027650770901172,0.0,0.0,0.0,0.0,0.0,0.0,0.0,0.0,0.0,0.0,0.0,0.0,0.0,0.0,0.0,2127.0377881794957,2081.3599115961015,2099.153371998172,2123.693488942931,2117.9563362915046,2091.097894334282,2104.1103261339363,2118.7145488645374,42.66968427634499,-0.2192132808710995,2.561576249887082,0.08895398342792914
183,1.8400000000000014,8.381547020071302,6.010831220251947,1.2562370929610602,0.47071125384507156,0.2470689140638403,-0.5129550645203793,0.6739918167083401,8.441467418843828,2.3651949363773466,-2.018730547572315,0.10388770378713841,3.4966658181961354,0.04150783816607148,-10.468754264959301,-41.419872098458654,7.323496495998949,0.0,0.0,0.0,0.0,0.0,0.0,0.0,0.0,0.0,0.0,0.0,0.0,0.0,0.0,0.0,2134.793797109591,2070.932541903331,2091.5299092824766,2130.310594470521,2123.068644984231,2083.40379278892,2098.36353842431,2123.2670513298867,42.552597652661404,-0.4095769710732576,1.9962407431310651,0.09149025753210613
184,1.8500000000000014,8.465427732746475,6.032429315038085,1.236437616041435,0.4788612522672996,0.23593438877523376,-0.5052005435608968,0.6780850065117389,8.333757102964263,1.9558008864694794,-1.9393576240922583,-0.062016962129681566,3.0588423520228285,0.04915267638511425,-11.018375079004272,-40.5771554208143,8.414489760911081,0.0,0.0,0.0,0.0,0.0,0.0,0.0,0.0,0.0,0.0,0.0,0.0,0.0,0.0,0.0,2140.0976076261486,2062.5207175169867,2084.906475313712,2133.942567579967,2126.60204766644,2076.927222437442,2092.9501459974804,2125.6517213221982,42.34417034399504,-0.5740854024514872,1.4190611116233631,0.09449882307322362
185,1.8600000000000014,8.548204669811938,6.049976044080284,1.2174816889868552,0.48589314129950567,0.22590417073410923,-0.4990457939345805,0.6810495256875504,8.22077334685156,1.5548897702777011,-1.8504142697387465,-0.24011355257686348,2.5621253556540386,0.05622532496722422,-11.530229792247937,-39.74534531654683,9.267083610625004,0.0,0.0,0.0,0.0,0.0,0.0,0.0,0.0,0.0,0.0,0.0,0.0,0.0,0.0,0.0,2142.7328975264363,2054.8200875368225,2077.7267021139332,2134.543502838716,2127.8570549844144,2070.6343176550477,2086.7069406580913,2125.225999518619,42.11158656972731,-0.7348193590452665,0.8517175865841555,0.09878124339643132
186,1.8700000000000014,8.62982729165029,6.063555968473151,1.1994524121979755,0.49172952258560454,0.21715677725426602,-0.49466265292048406,0.6829010693474886,8.102977037011902,1.1624081350071989,-1.7544592470438312,-0.410312733001325,2.0286163194217965,0.06258861450784257,-11.990714260766921,-38.92193754334383,9.856221377730234,0.0,0.0,0.0,0.0,0.0,0.0,0.0,0.0,0.0,0.0,0.0,0.0,0.0,0.0,0.0,2140.885600783523,2047.1019076714995,2069.2523497887328,2132.173540819876,2125.367524783177,2063.3582273434517,2078.983319537094,2121.979848453305,41.86390963158979,-0.8886448974683774,0.311324525115655,0.10312185262629331
187,1.8800000000000014,8.710249887931269,6.073250949921546,1.1824073849829047,0.49633388729035693,0.20980867542438228,-0.4921383896186694,0.6836905714630357,7.9808444187251615,0.7777581695426625,-1.653959627228017,-0.5757545765434569,1.4800236407004634,0.0685248126801029,-12.40458216656748,-38.180886495336686,10.206005774847204,0.0,0.0,0.0,0.0,0.0,0.0,0.0,0.0,0.0,0.0,0.0,0.0,0.0,0.0,0.0,2136.498375251746,2040.2972865827307,2061.7157346447607,2127.8617050718913,2120.889444336635,2056.5586176801926,2071.743734273374,2117.3586375634404,41.632748617254,-1.0291357401013494,-0.1858439730608925,0.10848958271783324
188,1.8900000000000015,8.78943139722349,6.079134634246729,1.1663803643461506,0.49971122304408,0.20389942258086435,-0.49149988550117935,0.6834775648017332,7.8548347008858235,0.3999757773831599,-1.5512334733837692,-0.735204107502409,0.935842550076416,0.07417599850749389,-12.77276818477624,-37.54260073843341,10.328979537253424,0.0,0.0,0.0,0.0,0.0,0.0,0.0,0.0,0.0,0.0,0.0,0.0,0.0,0.0,0.0,2130.2189602205963,2034.5749874192077,2055.2674728644024,2121.7826280936083,2114.9259997818667,2050.4282656005485,2065.11544225391,2111.426698783544,41.39661126306178,-1.152503360004217,-0.6392792138302033,0.11395372634848552
189,1.9000000000000015,8.867335131836246,6.081269715764444,1.151382898011944,0.5018985154598813,0.19940503396224407,-0.49270662523964726,0.682331073639946,7.725353634021104,0.0278245168692519,-1.4483834901836596,-0.8847454846292678,0.41411259745922746,0.07970531229355578,-13.102603995084117,-37.03510698664204,10.251256782181306,0.0,0.0,0.0,0.0,0.0,0.0,0.0,0.0,0.0,0.0,0.0,0.0,0.0,0.0,0.0,2122.7350600557347,2030.6393053505778,2050.537559417412,2114.9565112777045,2108.2455451282885,2045.619434405068,2059.8831311789922,2105.121827043328,41.098757072395074,-1.229723917382932,-1.0540710221621254,0.1198259141685751
190,1.9100000000000015,8.943928377763521,6.079706530400989,1.1374062678944465,0.5029512915940157,0.19625893320360485,-0.495659156429157,0.6803267083318361,7.5928049446581385,-0.3398572945710941,-1.347386072293778,-1.0206942140696003,-0.07557373456236396,0.08519617475189616,-13.391447077653496,-36.63659810579606,9.98089556718229,0.0,0.0,0.0,0.0,0.0,0.0,0.0,0.0,0.0,0.0,0.0,0.0,0.0,0.0,0.0,2114.159680377642,2027.5666233621055,2046.3634934617828,2107.3962647627573,2100.680890905452,2041.4079913697594,2055.0826414748863,2098.1412738429367,40.80695464303065,-1.2930715628372782,-1.4022659617420774,0.1254435827240615
191,1.9200000000000015,9.019182892026217,6.074485885896193,1.1244219832286138,0.5029199194836375,0.1943981753367472,-0.5001944512980102,0.6775591597071045,7.4576993149893065,-0.7037616513257717,-1.2502370238450726,-1.125814114105333,-0.5303631337898863,0.090693532325903,-13.623829731434611,-36.29001197440329,9.513188442371145,0.0,0.0,0.0,0.0,0.0,0.0,0.0,0.0,0.0,0.0,0.0,0.0,0.0,0.0,0.0,2103.2008063429403,2023.839435436199,2040.3856826426727,2098.7004258201596,2090.9402229371867,2036.1687467301917,2048.7119280882876,2089.6735861822235,40.530203048373764,-1.345927015397555,-1.6780103579006242,0.13022182690334802
192,1.9300000000000015,9.093075614550905,6.0656416588898825,1.11238286897713,0.5018689884969051,0.19373208537924902,-0.5061117028799171,0.6741263543933669,7.32052206415579,-1.0647234027955343,-1.1586010757781935,-1.2099847618273207,-0.9349542800684384,0.09620943701853316,-13.81084018570089,-36.03496633487379,8.895511741312756,0.0,0.0,0.0,0.0,0.0,0.0,0.0,0.0,0.0,0.0,0.0,0.0,0.0,0.0,0.0,2091.386296685059,2021.1215564146803,2035.5746766788327,2088.933534121781,2080.7537140723784,2031.6881431656795,2042.994188927458,2080.7618664889014,40.30095900867573,-1.377084939525446,-1.879618819412419,0.1358233678280453
193,1.9400000000000015,9.165587987042894,6.0531987233244084,1.1012268654323065,0.4998986684687639,0.19410909474989474,-0.5131958721222735,0.6701141525405895,7.18169706449,-1.4236383832715989,-1.073820548753819,-1.2784130003579564,-1.279237908561646,0.10164429080706111,-13.957381074344966,-35.8642277130079,8.154688345136885,0.0,0.0,0.0,0.0,0.0,0.0,0.0,0.0,0.0,0.0,0.0,0.0,0.0,0.0,0.0,2079.371372639181,2019.4217374844889,2032.1532836724268,2078.334093474332,2070.47937629684,2028.1546322991023,2038.2885163476979,2071.411329536814,40.09202033365252,-1.3900551457027686,-2.0188190906940124,0.14120426378019785
194,1.9500000000000015,9.236705246731749,6.037172904610764,1.0908800496883524,0.4971313121610013,0.19534880148339553,-0.5212110210667564,0.6656112797621683,7.041549347904405,-1.7814436718285764,-0.9969131503877273,-1.3276200850724578,-1.556909340832231,0.10706030865807997,-14.075192113562451,-35.78609910618668,7.325749428409356,0.0,0.0,0.0,0.0,0.0,0.0,0.0,0.0,0.0,0.0,0.0,0.0,0.0,0.0,0.0,2067.821398364074,2019.3784008574373,2030.4630097841236,2068.4273837843,2060.8874392673474,2026.142377657991,2035.2959587557139,2062.8718321388415,39.83193082584667,-1.3503407578710251,-2.1289142958570078,0.1471614446622643
195,1.9600000000000015,9.306415700633107,6.017571652539263,1.081259439196345,0.49369669434192687,0.19726853761800736,-0.5299138465096123,0.6607117475414631,6.9003884143629435,-2.138806770484452,-0.928705177962284,-1.3583086646827676,-1.7702337277029074,0.11247867674413803,-14.162007342242156,-35.7607215150888,6.421837632447414,0.0,0.0,0.0,0.0,0.0,0.0,0.0,0.0,0.0,0.0,0.0,0.0,0.0,0.0,0.0,2056.8338309390538,2019.824511635614,2029.2031608245863,2059.0963654618317,2051.7428584100253,2024.7147078017765,2032.8398941074488,2054.7461419230203,39.59456230093905,-1.3048400059959926,-2.1698301338480634,0.15267818669507066
