,t,px,py,pz,qw,qx,qy,qz,vx,vy,vz,omex,omey,omez,accx,accy,accz,taux,tauy,tauz,jerkx,jerky,jerkz,snapx,snapy,snapz,bomex,bomey,bomez,baccx,baccy,baccz,mot1,mot2,mot3,mot4,motdex1,motdex2,motdex3,motdex4,f1,f2,f3,f4
1,0.02,-5.561110342626384,3.1405214890653883,0.4750225948089768,1.0,1.2165270103623684e-27,5.303110032292305e-28,3.800941958135414e-28,-2.1713005440996106e-25,-3.423090879054539e-26,-0.09796830674977901,-4.141282798647678e-26,2.3232383638905356e-26,-9.193392323964714e-27,1.4628282905112035e-25,3.0685198231153644e-27,-9.78804353984948,0.0,0.0,0.0,0.0,0.0,0.0,0.0,0.0,0.0,0.0,0.0,0.0,0.0,0.0,0.0,0.0,0.0,0.0,0.0,0.0,0.0,0.0,0.0,14.072673513463997,9.721046612339554,2.524934268300529,0.3001682406282432
2,0.03,-5.561110242039829,3.1405205788773363,0.47397228064835956,0.9999823587810782,0.005893571212742179,0.000733340007515189,-0.00010078404911090508,5.548595551294787e-05,-0.0004800465329231284,-0.0817185947578566,3.1878539357454665,0.4485030012005743,-0.05877716058126237,0.020171671234673488,-0.1656886555381009,6.355344564513726,0.0,0.0,0.0,0.0,0.0,0.0,0.0,0.0,0.0,0.0,0.0,0.0,0.0,0.0,0.0,0.0,2315.8339681392345,568.4240320966411,1914.947700637654,0.0,2183.349831757849,1103.1104392943,1781.5510720192071,14.072673513463997,9.721046612339554,2.524934268300529,0.3001682406282432
3,0.04,-5.5611069895932195,3.140497192854242,0.473408737513378,0.9995362710231641,0.029989950863341063,0.005258722269824192,-0.0004377172732422992,0.000799188544588236,-0.005280003640326356,-0.03419143658859403,6.111709968665474,1.3269506018377248,-0.06299361465005755,0.1371276125293853,-0.7973206973897976,4.183692171818374,0.0,0.0,0.0,0.0,0.0,0.0,0.0,0.0,0.0,0.0,0.0,0.0,0.0,0.0,0.0,648.114127572841,1848.1700507118007,1224.5068297428888,1691.837064919129,842.2959749943891,1768.0541709603267,1260.9644614168271,1677.276616903193,14.072673513463997,9.721046612339554,2.524934268300529,0.3001682406282432
4,0.05,-5.561088290794869,3.1403870959571853,0.47327459414168205,0.9978043744390098,0.06489151168550664,0.01323510051684856,-0.0005951267554651465,0.0033110733635942215,-0.018373733510569305,0.007271721204425703,7.7094535760985,1.82598506516183,-0.023474518094337805,0.35513127167548536,-1.7633322325411316,4.116468427256792,0.0,0.0,0.0,0.0,0.0,0.0,0.0,0.0,0.0,0.0,0.0,0.0,0.0,0.0,0.0,1040.1891613388768,1661.8705452620163,1346.2083195671055,1601.5883803639074,1111.0558370367212,1622.0966165199309,1370.952111599245,1579.1181351853322,14.072673513463997,9.721046612339554,2.524934268300529,0.3001682406282432
5,0.060000000000000005,-5.561032408671611,3.1400940381157936,0.473550288746945,0.9941274421201768,0.10571931808729404,0.023104054806686126,-0.0005072063106050967,0.00832006464538614,-0.042131412047564314,0.04754602532316103,8.597579071001112,2.1195333360427395,0.016416416587971473,0.62570541025666,-2.8927851377963316,3.931736982775061,0.0,0.0,0.0,0.0,0.0,0.0,0.0,0.0,0.0,0.0,0.0,0.0,0.0,0.0,0.0,1211.9062722843723,1554.1307367977377,1402.9260066639367,1543.3425357347394,1246.7813618545085,1530.4079058632487,1414.4224602362344,1530.216737880999,17.834207777955857,3.0416575324081814,-0.28052808665644013,0.04044326639458823
6,0.07,-5.560912312441464,3.139505281192077,0.474216658441182,0.9881470588298072,0.14969014263891586,0.03403260336745546,-0.00018229310518484893,0.016195689422965804,-0.0776225736687111,0.08516734047280611,9.09321382419984,2.2911330225210396,0.05480030348848965,0.92251912154819,-4.0916359267279265,3.602441275874224,0.0,0.0,0.0,0.0,0.0,0.0,0.0,0.0,0.0,0.0,0.0,0.0,0.0,0.0,0.0,1300.8769598139413,1491.5383034053673,1430.4099140953706,1508.1084175071821,1319.811537203606,1478.0300860360385,1435.736157985256,1500.3174794684942,22.688088185992868,4.541453740782146,0.5196471782350142,0.046033524848958805
7,0.08,-5.560691054998364,3.1384690870432737,0.4753341937620117,0.9811205426396891,0.1884687521695253,0.043381793138733145,0.0001740406056270443,0.028982222740387406,-0.13353798563068245,0.14305545333739986,6.432502345281473,1.3432793225851194,0.05403229080163672,1.458257533794062,-6.360956629932135,6.277410381501008,0.0,0.0,0.0,0.0,0.0,0.0,0.0,0.0,0.0,0.0,0.0,0.0,0.0,0.0,0.0,2064.416084448851,908.0071462291232,1735.0094520569023,1446.0561035206551,1896.5737174055917,1278.1085601440827,1667.2696222774346,1559.0361352938683,24.89532364328704,4.2332752071370585,0.6788220389414348,0.11433511526811296
8,0.09,-5.560313402035545,3.1367470608203956,0.47718525204935824,0.974823588178283,0.21758262277404747,0.04875165689040689,0.00022393843796943375,0.04759815280124594,-0.2158806871774115,0.2336320962325792,5.636657401834149,0.9869568715175419,0.06563502225450052,2.0927327717035413,-9.368736192590877,10.252145827417818,0.0,0.0,0.0,0.0,0.0,0.0,0.0,0.0,0.0,0.0,0.0,0.0,0.0,0.0,0.0,1937.7390001168094,1668.5867871467356,1863.4619217098516,1753.5661180178538,1964.7595382200423,1672.0768740701762,1873.6984828252307,1765.1471457954276,25.507257070663997,3.592133672268718,0.7660226784931013,0.15810240922183938
9,0.09999999999999999,-5.559722328623007,3.13406724725904,0.4800868972082323,0.9684984324180616,0.24329239426887392,0.05309925084754899,0.0002585616083589887,0.07126551525937466,-0.3235053308971441,0.3488215799060875,4.998091855524298,0.8549716405082538,0.07189299145403616,2.51255227642512,-11.554349381182716,11.826388094671014,0.0,0.0,0.0,0.0,0.0,0.0,0.0,0.0,0.0,0.0,0.0,0.0,0.0,0.0,0.0,1972.2014745883246,1823.9378538022427,1951.7093498854388,1863.7832409696937,1962.983666284716,1844.1037244984036,1944.6941712624487,1881.2139990730643,26.153460008322096,2.7174545470300617,0.7524445074070668,0.1998180576077071
10,0.10999999999999999,-5.558878603472689,3.1302245216855433,0.4841726014032003,0.9623224635257194,0.2658624215512884,0.05703058387185896,0.0004018754913608367,0.09787014867843111,-0.44720766223052344,0.4681700278305099,4.36849018466751,0.819216959301797,0.08077981667478767,2.7566929078329943,-12.9048916540484,11.820408328673926,0.0,0.0,0.0,0.0,0.0,0.0,0.0,0.0,0.0,0.0,0.0,0.0,0.0,0.0,0.0,1986.7010427188975,1856.60800652751,1992.9229876809702,1882.472701029075,1971.32175686939,1876.1187850711833,1977.1973646722872,1902.0613278925273,27.00927984305123,1.6790583118017852,0.6650486380300434,0.23027474105846213
11,0.11999999999999998,-5.55775682195257,3.1250805095014265,0.48944926543918177,0.9565934786253496,0.2850154321056576,0.060782848155053366,0.0007519861952288154,0.12687271826821325,-0.583509283841474,0.5869865595905425,3.628293913041381,0.7921796640239697,0.09223742331381898,2.995633275963333,-14.094633679196722,11.769687567028342,0.0,0.0,0.0,0.0,0.0,0.0,0.0,0.0,0.0,0.0,0.0,0.0,0.0,0.0,0.0,2016.2022191039905,1869.1222422523804,2030.4407898297839,1899.0634241446046,1996.3415180126892,1893.69901106659,2011.7313340375854,1921.6803413029115,27.690472282193472,1.1786343060161948,0.6573082576009633,0.20406386552646674
12,0.12999999999999998,-5.556332309811076,3.1185136324298353,0.4959168187385335,0.9517017075305387,0.30021044266132074,0.06430958772934994,0.0013516384989342065,0.15845594047117592,-0.7316812131185088,0.7066900564324349,2.7550167614538,0.7399082069231213,0.10526682643115676,3.260743927777754,-15.237234846275705,11.934815718751768,0.0,0.0,0.0,0.0,0.0,0.0,0.0,0.0,0.0,0.0,0.0,0.0,0.0,0.0,0.0,2059.7615164822937,1883.6577577437395,2071.511459836641,1923.3897144546816,2035.9109231132352,1914.0207934166338,2050.8891861932625,1948.8132769154533,27.495415496216587,0.44022854220657015,0.41149948399682557,0.20899961645338572
13,0.13999999999999999,-5.554579056239293,3.1104129017218685,0.5035881333823726,0.9478094430374109,0.3115830893668591,0.06759003197993202,0.0021967445616247736,0.19259540117341017,-0.8898782847247259,0.8276732117978105,2.056792314699096,0.7067855722869146,0.1158818950074837,3.5114695743958255,-16.142394984834606,12.061683755789643,0.0,0.0,0.0,0.0,0.0,0.0,0.0,0.0,0.0,0.0,0.0,0.0,0.0,0.0,0.0,2072.022587692501,1930.9896289003027,2081.2033220865733,1958.3648429922405,2056.97778324388,1950.7546422611235,2066.769875509084,1975.6238897965382,26.646592542831463,-0.48858106464758266,0.062177374902013305,0.2035211779594154
14,0.15,-5.552475078891609,3.1007022942871525,0.5124574929560712,0.9449341012479671,0.3195651976344946,0.07047935822320227,0.0032076196733416868,0.22842182901936617,-1.0526722855675963,0.9454936360582636,1.3326164658567643,0.5827746794058702,0.12493864970711482,3.6429632559388803,-16.395648423606968,11.613460195777025,0.0,0.0,0.0,0.0,0.0,0.0,0.0,0.0,0.0,0.0,0.0,0.0,0.0,0.0,0.0,2077.0552546844438,1914.8201282650064,2065.823654725159,1962.1153506818998,2054.3212064289405,1939.7244953967904,2051.5180861088247,1976.244082051951,25.934540470471166,-0.9482852017985419,0.09839031334513693,0.20934853734907452
15,0.16,-5.550009643745579,3.0893663491003016,0.522469574422763,0.9432973977663816,0.3239011461535107,0.07252564804694261,0.004254087797189652,0.26468454550167575,-1.2140793619240733,1.0557007655588764,0.5160042704018543,0.364578340737425,0.1327047190507652,3.6414923595711746,-16.071496474383107,10.777620267548471,0.0,0.0,0.0,0.0,0.0,0.0,0.0,0.0,0.0,0.0,0.0,0.0,0.0,0.0,0.0,2067.7778692867146,1864.1068700059532,2032.899242105044,1932.7649092381607,2037.963309092467,1895.0924398652373,2016.4745658305328,1946.6010993937527,24.588383535298746,-1.292000733806524,0.19132129488272354,0.21400713529804674
16,0.17,-5.547182236135417,3.0764338422862045,0.5335473797571724,0.9428990975106768,0.32476877753937683,0.07374392011251504,0.005326095715338493,0.3007619268091671,-1.3717998267211233,1.1589544652862076,-0.13276715079636048,0.2550784127382972,0.13940745470004764,3.6091387736173486,-15.649077320715854,10.155082125311798,0.0,0.0,0.0,0.0,0.0,0.0,0.0,0.0,0.0,0.0,0.0,0.0,0.0,0.0,0.0,2017.5733137173497,1864.0312539715053,2005.6650882817398,1906.47274140408,1999.6854023690596,1881.0134235383812,1990.549497397709,1919.3717705721238,22.319714218381115,-1.5739291106943383,0.418311341648808,0.21667175336555283
17,0.18000000000000002,-5.543998614539164,3.06195829511445,0.5456150143105664,0.9434631462931422,0.3229026993699714,0.07462196935500508,0.006534524910930562,0.33577468912044955,-1.5219655253238282,1.2531407147352784,-0.6480590733962259,0.22828805214710451,0.14578280666520751,3.473539908612544,-14.746504526875981,9.162364387403255,0.0,0.0,0.0,0.0,0.0,0.0,0.0,0.0,0.0,0.0,0.0,0.0,0.0,0.0,0.0,1945.7937164438647,1837.3222203329692,1953.7606092564897,1858.3773820525585,1931.8678667924223,1847.19785516004,1938.700977696451,1868.7733321670216,23.10382837059018,-1.7378040928932434,0.6137712744780648,0.22118335714620213
18,0.19000000000000003,-5.5404756466295835,3.046043948131752,0.558555250882506,0.9447475105154843,0.31886070024193436,0.07560542667506,0.007988408683862887,0.3684448397674097,-1.6586521688810947,1.3325470570101805,-1.060098050794754,0.30823780925403876,0.15174338841205928,3.2070535414248647,-13.223062987105738,7.520033653457769,0.0,0.0,0.0,0.0,0.0,0.0,0.0,0.0,0.0,0.0,0.0,0.0,0.0,0.0,0.0,1836.822994822171,1771.9292698212696,1870.6921617658008,1765.5852852129037,1826.2826958410592,1774.1032824486638,1852.3233226890807,1775.6960603903162,25.29165288773465,-1.7601673525541197,0.8266585413689771,0.2251538864887641
19,0.20000000000000004,-5.53662682841945,3.0287901631012186,0.5722728448146132,0.946526154146283,0.31313596564353985,0.07706248724466423,0.009771366189052808,0.401599559884384,-1.7922526744083063,1.4119371117699142,-1.3606570989838727,0.43483265421106576,0.15741698989464956,3.3817168958389376,-13.348846044932694,8.139868478639345,0.0,0.0,0.0,0.0,0.0,0.0,0.0,0.0,0.0,0.0,0.0,0.0,0.0,0.0,0.0,1845.1705580444088,1815.9942719989165,1890.9935647679065,1796.6410029725084,1844.046562325176,1820.0803823288002,1880.68226425353,1809.9276727448464,25.1423908223555,-1.6922036589831928,1.0770045608178074,0.22653674441437147
20,0.21000000000000005,-5.532430326983075,3.010170187055373,0.586850351202853,0.9485706784334936,0.30627076632467587,0.07918524126844656,0.011898877105647129,0.4383915955702046,-1.9330285195627719,1.5063078779719277,-1.5369274074495884,0.5974752777381165,0.1627870729047554,3.8294356971725896,-14.268899697250204,9.974420064694067,0.0,0.0,0.0,0.0,0.0,0.0,0.0,0.0,0.0,0.0,0.0,0.0,0.0,0.0,0.0,1910.844550503042,1915.782588480374,1963.4172939190191,1888.3319755288012,1917.2141764553414,1918.0783740183294,1959.005385003786,1901.1619332027044,24.997551360921516,-1.56409006550074,1.3295988180647644,0.22941791629292344
21,0.22000000000000006,-5.527851862215663,2.990133271280407,0.6024154180093728,0.9506616190916196,0.2988094382947269,0.08215079893436741,0.014375388917710414,0.47758922103663476,-2.07373222773946,1.6069606895475717,-1.6046440204906622,0.7971283749234873,0.16766652312532423,4.0014107921206294,-13.903793040725532,10.137474516788147,0.0,0.0,0.0,0.0,0.0,0.0,0.0,0.0,0.0,0.0,0.0,0.0,0.0,0.0,0.0,1894.6256301562967,1929.6465388634306,1955.4731501471178,1892.9396664040764,1900.6386204007542,1923.8933296294615,1948.6224579199543,1899.6175473504757,25.403716505011047,-1.3810553694403431,1.5674961889496641,0.23107483147999347
22,0.23000000000000007,-5.522872486690044,2.9687100679552585,0.6189918856622312,0.9526219549911704,0.291206618086133,0.08610670927916043,0.017197414594979317,0.5186355217775075,-2.210185871856703,1.7084471717392904,-1.5855644519117111,1.0187483649401492,0.17211087089818697,4.205293964944512,-13.459787908171261,10.19204860735412,0.0,0.0,0.0,0.0,0.0,0.0,0.0,0.0,0.0,0.0,0.0,0.0,0.0,0.0,0.0,1877.9261846517923,1935.691434054207,1944.2505571379745,1893.3521365669944,1886.3804485496494,1927.226929667378,1938.822969773604,1898.1581179378286,25.75773044577229,-1.1755718890104283,1.7950879616636284,0.23145737557244772
23,0.24000000000000007,-5.517468790320821,2.9459363472819686,0.636597680649332,0.9543167383167158,0.2838333366355357,0.09112857917289316,0.020341633189429806,0.5626844221568991,-2.3442506483400396,1.813406014012135,-1.4937508429390045,1.2470749262112542,0.17615317917134887,4.557235075911992,-13.298197621195218,10.643342772365783,0.0,0.0,0.0,0.0,0.0,0.0,0.0,0.0,0.0,0.0,0.0,0.0,0.0,0.0,0.0,1884.7751926421336,1958.0853740684145,1952.0111920606262,1914.112371880716,1896.070310364198,1948.9285807770314,1949.4005044663259,1918.044077876523,25.94323896484033,-0.920081794157793,2.0005139836607095,0.23151354976762503
24,0.25000000000000006,-5.511605792773218,2.9218303436858704,0.6552747358390594,0.9556480327323522,0.2769770573558303,0.09723900741338778,0.023772308902360963,0.6105986676240253,-2.4766313563554077,1.9226189381702008,-1.3518817151178215,1.4752156584762077,0.17978482624485975,4.971601059205799,-13.129660310704505,11.048708558855092,0.0,0.0,0.0,0.0,0.0,0.0,0.0,0.0,0.0,0.0,0.0,0.0,0.0,0.0,0.0,1893.8242280080945,1976.4696690986068,1959.9566426922447,1932.399950881528,1906.008926834993,1966.3949011451366,1958.4940081746604,1935.0551331326883,26.063400540831793,-0.636961334558563,2.1800282562247686,0.23236821609154393
25,0.26000000000000006,-5.505242560824239,2.896411195087897,0.675059644251903,0.9565409219297962,0.2708725499097827,0.10442371882761264,0.027444732195441076,0.662790178939233,-2.6067864734370523,2.0347151667677172,-1.1592486523168783,1.6939519646001713,0.18308264452650302,5.41836447617472,-12.893640214381108,11.282085622226656,0.0,0.0,0.0,0.0,0.0,0.0,0.0,0.0,0.0,0.0,0.0,0.0,0.0,0.0,0.0,1897.859863954655,1987.5498431892684,1960.8949037768377,1945.410101389788,1910.6659502673763,1976.3017929942737,1960.8696880573693,1945.995350202557,26.159373152046218,-0.3465436604018211,2.3400240552018685,0.2346227047068201
26,0.2700000000000001,-5.498334346139554,2.869702859835981,0.6959745801142369,0.9569326377475672,0.26573398858513053,0.11262988412436944,0.03130308812644712,0.7196696059909263,-2.7344677524871663,2.1484595178858372,-0.9266638746903559,1.896443063305075,0.18622157954469182,5.908403290373898,-12.65124213636648,11.409052039878631,0.0,0.0,0.0,0.0,0.0,0.0,0.0,0.0,0.0,0.0,0.0,0.0,0.0,0.0,0.0,1900.8689956332892,1994.22956684662,1959.386441442694,1955.735263045427,1913.9184199874644,1982.4929302922046,1960.755361396998,1954.6727016886423,26.21153878127521,-0.06683289650850777,2.4654328345612537,0.23526367278728416
27,0.2800000000000001,-5.490831961500378,2.8417295275479786,0.7180316588115472,0.9567802665257733,0.2617150825412085,0.12178365153270251,0.03529134988463591,0.7817021115263778,-2.8598315480247747,2.2630225524721537,-0.6687484857448132,2.0813826026051183,0.18943112130927664,6.444924915151029,-12.433938257202737,11.46063950742704,0.0,0.0,0.0,0.0,0.0,0.0,0.0,0.0,0.0,0.0,0.0,0.0,0.0,0.0,0.0,1904.3075590103958,1998.2819964739083,1958.2383219775884,1963.9517023419542,1917.2562307005212,1986.5325308971562,1960.5823745641771,1961.8331513739897,26.22203315306966,0.1807001423910146,2.570973199291251,0.2356418330088696
28,0.2900000000000001,-5.482681799679476,2.812513221273011,0.7412348519033127,0.9560625514778786,0.2588955550261055,0.1317898750180439,0.0393562967269796,0.8492846226697971,-2.983103993173566,2.3775362154057516,-0.40158551960687255,2.2415557039066223,0.19273498184883453,7.016636950933797,-12.23881508733049,11.420573276123225,0.0,0.0,0.0,0.0,0.0,0.0,0.0,0.0,0.0,0.0,0.0,0.0,0.0,0.0,0.0,1908.6865455179823,1998.601371932538,1956.0204913971504,1969.6957853996314,1920.7456626124763,1987.5219768686673,1959.1312078851827,1966.645108445105,26.22110615086826,0.42849120532789986,2.653058230326916,0.2352775664196925
29,0.3000000000000001,-5.473826790307167,2.782073681031011,0.7655790915382279,0.9547809019898468,0.2572720768750459,0.14253597050660824,0.043451176826345105,0.9227163194608765,-3.1045218326596755,2.491087099870578,-0.1437179547150863,2.379155745816152,0.19613490980812837,7.614448130595308,-12.067471443048206,11.289587270974621,0.0,0.0,0.0,0.0,0.0,0.0,0.0,0.0,0.0,0.0,0.0,0.0,0.0,0.0,0.0,1913.0546472449582,1995.947725298451,1954.1809173761449,1971.8756859712328,1923.8801846707195,1985.8489829521275,1957.3461649010421,1968.6097363215088,26.1973377924233,0.6625810334242099,2.696192704245365,0.23592758635585764
30,0.3100000000000001,-5.464207086673757,2.7504279010743575,0.7910509023531019,0.9529434821309881,0.2568070635178529,0.15391293668936737,0.04753588024912932,1.0022662957627864,-3.224413318098474,2.602942571340326,0.10980369036779818,2.4937194483743377,0.19961174083387542,8.23783142888268,-11.932110815767949,11.092283041220785,0.0,0.0,0.0,0.0,0.0,0.0,0.0,0.0,0.0,0.0,0.0,0.0,0.0,0.0,0.0,1916.7327638644422,1993.1426514612865,1951.4527407660032,1973.8103159914624,1926.7550937847645,1983.739691505039,1955.1712640115807,1969.9476430650627,26.155428992000495,0.8682793550315167,2.71644833043199,0.23877746690206947
31,0.3200000000000001,-5.453760473384643,2.717589487681189,0.817629828314753,0.9505597384633344,0.2574671333704482,0.16579440398511053,0.05156621426615541,1.0881217271034875,-3.3431007697383572,2.712393140319291,0.3543900400696561,2.578542858394579,0.2032233920044779,8.87501060204543,-11.826999360780466,10.822594002764419,0.0,0.0,0.0,0.0,0.0,0.0,0.0,0.0,0.0,0.0,0.0,0.0,0.0,0.0,0.0,1920.607744874759,1988.3401829113989,1947.4988564530786,1975.451552571298,1929.3135056210099,1980.0709572099508,1951.8515155080206,1970.8946588661938,26.1020166368268,1.041243256024127,2.708317673267749,0.2400313969690014
32,0.3300000000000001,-5.442423377415504,2.6835689577781863,0.8452883453591978,0.9476510274207208,0.2591883163813331,0.17804075307317388,0.05550168578520547,1.1803715713299303,-3.460886761903003,2.8187533599267964,0.5813065086678821,2.636639586458635,0.20712149011385705,9.517138372533207,-11.751199844575844,10.486582508943076,0.0,0.0,0.0,0.0,0.0,0.0,0.0,0.0,0.0,0.0,0.0,0.0,0.0,0.0,0.0,1924.080264308158,1982.1793886470475,1944.1948915490184,1975.4662264739281,1931.4010292035719,1975.1305716219442,1948.6646883293188,1970.7363211983718,26.019660923832262,1.1609983402846853,2.685859765208545,0.24104231138685261
33,0.34000000000000014,-5.430131728414782,2.6483738540000767,0.873992463326644,0.9442507580435932,0.2618700275852155,0.19051683847077638,0.0593121306792981,1.279029021565432,-3.5780624624840502,2.921420743632897,0.7839411573340441,2.6671894723263936,0.21121681642900456,10.157139900558665,-11.70320280904713,10.093731215836677,0.0,0.0,0.0,0.0,0.0,0.0,0.0,0.0,0.0,0.0,0.0,0.0,0.0,0.0,0.0,1927.9989040284993,1975.0063071676343,1940.8712377966312,1974.2917371893054,1933.7332803136699,1969.4367396787327,1945.3690914488632,1969.4694957669255,25.95829608169317,1.2536065262214173,2.6504318583887705,0.24058695122000667
34,0.35000000000000014,-5.416821920153295,2.612009219210447,0.9037021562977503,0.9404077257790994,0.26536620875128347,0.2030947531267916,0.06298099554881671,1.3839761234689456,-3.6948175638809166,3.0197673913177066,0.9491993150191023,2.6757965235574424,0.2153846087689884,10.77982399723365,-11.66891201343212,9.637485364245357,0.0,0.0,0.0,0.0,0.0,0.0,0.0,0.0,0.0,0.0,0.0,0.0,0.0,0.0,0.0,1931.437367607968,1966.2570485742326,1938.3062552603103,1970.202990158896,1935.3754683609734,1962.3104757340004,1942.1337612873508,1965.9190300612788,25.894856292517865,1.3238444228384825,2.5800819212799744,0.24113304608786895
35,0.36000000000000015,-5.402431532561754,2.574478098980056,0.9343722251585483,0.9361773281854556,0.269511319351784,0.21566819696699363,0.06650479493847505,1.4951345880413385,-3.811403984995724,3.1134590671362545,1.0822181345960198,2.6661242943813135,0.21944973268936327,11.397153401467186,-11.662577686861297,9.160502576619933,0.0,0.0,0.0,0.0,0.0,0.0,0.0,0.0,0.0,0.0,0.0,0.0,0.0,0.0,0.0,1934.9063163210867,1959.0885346693372,1936.4236652486625,1966.5410212657364,1937.567070161818,1956.4572338005694,1939.9242101689442,1962.6357506681018,25.83198974736895,1.3598325820061146,2.4968369688068006,0.24379787532822356
36,0.37000000000000016,-5.386899043267093,2.535781162897033,0.9659547675228293,0.9316163097700978,0.2741663002101215,0.2281255542000898,0.06987576633097274,1.6123644853963977,-3.928002149647787,3.202213430501376,1.1872799856094705,2.6310855444281565,0.22337108812733533,11.99545955861403,-11.66933857965713,8.654048949321425,0.0,0.0,0.0,0.0,0.0,0.0,0.0,0.0,0.0,0.0,0.0,0.0,0.0,0.0,0.0,1938.6042154225843,1951.373487777216,1933.3300216321388,1964.180483300696,1939.7189819715372,1950.2400578882061,1936.9766446580531,1960.145681750954,25.76939272712332,1.3748373618220844,2.398829358834966,0.24389989004713458
37,0.38000000000000017,-5.370164800545817,2.4959177107983224,0.9983991016340372,0.9267893562370714,0.27919917927196025,0.24034903619924988,0.07308658055779098,1.7354439351093403,-4.044721502809506,3.2857822596100412,1.2613852039881601,2.5760836565796974,0.22724318219249134,12.56909318728372,-11.68499153005964,8.126286773748603,0.0,0.0,0.0,0.0,0.0,0.0,0.0,0.0,0.0,0.0,0.0,0.0,0.0,0.0,0.0,1941.7260594037857,1943.8014604034363,1931.3195179488846,1961.2116051853618,1941.4598268709367,1944.0202225187618,1934.6149875175718,1957.5430349369353,25.686305337208623,1.3463185138725275,2.2923681515569143,0.24293777560532465
38,0.3900000000000002,-5.352171640640216,2.454886185093601,1.0316524398898534,0.9217629980861991,0.28448243069940654,0.25224150980210125,0.07613765635515272,1.864098649583648,-4.161623556586086,3.3639907870837042,1.309278579350352,2.503141428292911,0.23090209866761607,13.113211962462401,-11.704845970351485,7.584191344781832,0.0,0.0,0.0,0.0,0.0,0.0,0.0,0.0,0.0,0.0,0.0,0.0,0.0,0.0,0.0,1944.4174894808452,1937.086747708662,1929.0013341460506,1958.1217319475463,1943.0146711373645,1938.460300513376,1932.1162492887272,1954.6191831208032,25.646020825543438,1.285905850553597,2.183393635935959,0.23915961434300675
39,0.4000000000000002,-5.332865655997465,2.4126849032788202,1.0656602008065164,0.9166092702757291,0.28988322218864426,0.2637200063027644,0.07903746841716469,1.997938411798097,-4.2786578180882,3.436636122193115,1.3228372203385004,2.4162402620358394,0.2341711482566332,13.613890889905944,-11.71488840017787,7.021674569147152,0.0,0.0,0.0,0.0,0.0,0.0,0.0,0.0,0.0,0.0,0.0,0.0,0.0,0.0,0.0,1946.647922219512,1929.4873307054047,1927.0167732051164,1953.0806937269265,1943.8489175894065,1932.1942291714176,1929.4290802177668,1950.200229176645,25.609231301465382,1.2095062069607474,2.046955008898554,0.23618281616911305
40,0.4100000000000002,-5.312196332703007,2.3693123062118158,1.1003670756500923,0.9114061123957645,0.29525311685891537,0.27472167843162476,0.08180766878750252,2.1367385356311224,-4.395905495941049,3.503855600068129,1.3035235743915108,2.3201318126202373,0.2368148839815503,14.099973001473476,-11.73866536574586,6.487323252268862,0.0,0.0,0.0,0.0,0.0,0.0,0.0,0.0,0.0,0.0,0.0,0.0,0.0,0.0,0.0,1949.974326102147,1924.2162505656327,1926.8641203891943,1948.7639371471848,1946.1725607985675,1928.1001401927892,1928.6622659153286,1946.6433682150441,25.55000682706881,1.0881152246287908,1.9253204773538852,0.2371486964300259
41,0.4200000000000002,-5.290115307409304,2.324766128613984,1.1357196579412994,0.9062320308637832,0.3004679514483915,0.28518113132542894,0.08446442283505315,2.280222518731008,-4.513362485736969,3.5657965046160536,1.2590136252422528,2.2070036693486923,0.23880602142516766,14.552714737625205,-11.756079193593116,5.964522420213836,0.0,0.0,0.0,0.0,0.0,0.0,0.0,0.0,0.0,0.0,0.0,0.0,0.0,0.0,0.0,1953.558399461134,1918.798894257098,1925.434045916858,1946.3504335657196,1948.571934993945,1923.889855522967,1927.274363307646,1944.249694839756,25.486190024713085,0.9766799049140531,1.8043626845713645,0.23537198221706288
42,0.4300000000000002,-5.266577884440368,2.279045025494327,1.1716653849648402,0.9011682857264318,0.3054033167280976,0.29504252801227376,0.08703126792416699,2.427937704689683,-4.630854275027985,3.622491703417635,1.1799483676110583,2.090450100745403,0.24041058271021845,14.955740875906898,-11.750712191243906,5.443981556109367,0.0,0.0,0.0,0.0,0.0,0.0,0.0,0.0,0.0,0.0,0.0,0.0,0.0,0.0,0.0,1955.1164191593828,1912.9506646980121,1925.9790537144318,1941.2422199510168,1949.1321827611246,1918.9449662401096,1926.6788948255307,1940.244280035088,25.40478081050522,0.8536115621420612,1.6769248321155819,0.23171787023130572
43,0.4400000000000002,-5.241543979819985,2.232149649213829,1.2081523584955263,0.8962790939681348,0.3099571026880229,0.3042909221313371,0.08954001852449242,2.5794524253010502,-4.748187076106122,3.674078571051297,1.0871755663563376,1.9718836664109314,0.2415719192413984,15.318332335587215,-11.727018174808812,4.942540346414059,0.0,0.0,0.0,0.0,0.0,0.0,0.0,0.0,0.0,0.0,0.0,0.0,0.0,0.0,0.0,1954.7213737553857,1909.0949958021656,1924.6079002239962,1937.2102559479047,1948.5443833924414,1915.2736135143023,1925.1766570229167,1936.3214887152014,25.374735623612683,0.6922188939303704,1.5639156080175494,0.2242153743540623
44,0.45000000000000023,-5.214977807544049,2.184082686158931,1.2451303300905248,0.8916131202648889,0.31407861421230915,0.31291441433502276,0.09200672348993817,2.734315905397662,-4.865132293850044,3.720721539515528,0.9808483551052141,1.8494725793049316,0.24214623131042418,15.634285625187871,-11.67867181000748,4.457761991151887,0.0,0.0,0.0,0.0,0.0,0.0,0.0,0.0,0.0,0.0,0.0,0.0,0.0,0.0,0.0,1953.8320023077351,1904.7031087627852,1921.9909823523674,1932.846399179298,1947.1460016670383,1911.3377962906857,1922.3413713459072,1932.1225806218097,25.344244121455723,0.5157107257044184,1.438941185955656,0.21815095190431477
45,0.46000000000000024,-5.186847046892842,2.134848325228922,1.2825519183310676,0.8872238142232103,0.31769118367782484,0.32091023633758436,0.0944607617074784,2.8923566645042467,-4.981671976109406,3.762896797587313,0.8497203860704867,1.730966205048122,0.24189322141254999,15.945082196661797,-11.636362729984029,4.033166277977784,0.0,0.0,0.0,0.0,0.0,0.0,0.0,0.0,0.0,0.0,0.0,0.0,0.0,0.0,0.0,1955.1620322324159,1902.3328899355556,1922.8507897016266,1928.0444836709698,1947.9864965510956,1909.6665135994233,1922.2650969416688,1928.4484094957427,25.27000616982295,0.29735921429069095,1.349231721511814,0.21627862912661158
46,0.47000000000000025,-5.157120909670072,2.0844510319391687,1.3203747330618223,0.8831683738858889,0.3207015895854959,0.3282784927921896,0.0969399039363011,3.053340648974613,-5.097685923806757,3.8010281151614573,0.6986672128422703,1.6094684145887064,0.24086410448427178,16.225702418570798,-11.574696314022859,3.645434825374938,0.0,0.0,0.0,0.0,0.0,0.0,0.0,0.0,0.0,0.0,0.0,0.0,0.0,0.0,0.0,1956.805694349715,1899.3712587110067,1922.8900245637612,1924.5991258170955,1948.9386122047272,1907.3922058755447,1922.0111780413413,1925.3594909892543,25.185191649630248,0.12233631637901304,1.2721873936248835,0.2114275186910149
47,0.48000000000000026,-5.12577226042248,2.03289771428487,1.3585595412367366,0.879500405039235,0.3230052669768641,0.3350335006362161,0.09949466564830987,3.2167717507988476,-5.212806469405029,3.8353288006791937,0.5173526599145657,1.5013078541426512,0.23940486394436739,16.45044896287029,-11.468539771579245,3.274518645496105,0.0,0.0,0.0,0.0,0.0,0.0,0.0,0.0,0.0,0.0,0.0,0.0,0.0,0.0,0.0,1955.404624685503,1895.4017034607257,1924.5591118646773,1917.269481906687,1947.108412352385,1903.6513156456774,1922.086616829145,1919.5427140632628,25.082449623398357,-0.03041373152473409,1.1877980876492469,0.2050828539336401
48,0.49000000000000027,-5.092778803316749,1.9801991812448871,1.3970694515291358,0.8762374713365371,0.3245437047856155,0.3412329339818785,0.1021731974438391,3.3822482778687157,-5.326675971899631,3.8661091354859933,0.3399752959473173,1.405858137624868,0.2374998947724506,16.64172235595851,-11.329931503165191,2.939445640567584,0.0,0.0,0.0,0.0,0.0,0.0,0.0,0.0,0.0,0.0,0.0,0.0,0.0,0.0,0.0,1950.8864952370418,1894.1840618486058,1922.6117492855144,1912.1881675817792,1943.3825867039202,1901.5453299198944,1920.2245010261,1914.3285674619117,25.04314182768383,-0.2367409633571417,1.1358179609928658,0.1937656187143631
49,0.5000000000000002,-5.058121812552309,1.92636961930481,1.4358709291153935,0.8733660703610491,0.32535457339548446,0.34692276800561545,0.10497953015737618,3.549423445214048,-5.438958849122841,3.8936958159850743,0.17365808391027968,1.3147809976669478,0.23506333430483628,16.798375308470614,-11.158112694115374,2.6355403382654075,0.0,0.0,0.0,0.0,0.0,0.0,0.0,0.0,0.0,0.0,0.0,0.0,0.0,0.0,0.0,1945.842957752103,1892.3322715292861,1917.8740776967234,1908.33252939774,1938.7145637317499,1899.2074765803163,1915.8896137781455,1910.0106218524545,25.000982782194132,-0.4582992419718378,1.0978105683683224,0.1854767739774401
50,0.5100000000000002,-5.021784511516393,1.8714254289703254,1.4749347742544543,0.8708853996160397,0.3254240667403782,0.3521466148634751,0.10793775596129526,3.718336904745665,-5.54960318497089,3.918696545122989,-0.011339654917376157,1.2400743128218008,0.23181571317400385,16.974871676345593,-10.9906801139239,2.4036453450908546,0.0,0.0,0.0,0.0,0.0,0.0,0.0,0.0,0.0,0.0,0.0,0.0,0.0,0.0,0.0,1944.665221668681,1891.930880269538,1919.0184193354698,1902.26056668932,1937.4409854261608,1899.141229393998,1915.6576449628892,1905.5721104802758,24.89915832484625,-0.7060354229717759,1.113750619354216,0.1823843895967981
51,0.5200000000000002,-4.98374954108727,1.815383691434412,1.5142378144865405,0.868803847692638,0.3246691614331199,0.3569663977924439,0.11110715861666642,3.88893298292328,-5.6584193948490284,3.941601550491966,-0.2123035043042433,1.1804264276143857,0.22788181401881577,17.136804875033995,-10.794369726799147,2.212055176244121,0.0,0.0,0.0,0.0,0.0,0.0,0.0,0.0,0.0,0.0,0.0,0.0,0.0,0.0,0.0,1943.2944092816037,1891.0452202254035,1920.48300581125,1896.5584693226865,1936.0059174944545,1898.2552959136976,1916.278333204625,1900.8071334427054,24.776084685142745,-0.9065553446562218,1.1614103514371048,0.17648759305842412
52,0.5300000000000002,-4.944001887275318,1.7582650237738287,1.5537602158604238,0.8671137897778988,0.3229990850533957,0.3614705962688133,0.11456122670758988,4.060799535885305,-5.764891726592811,3.9625906189556224,-0.434254372763545,1.1523871027853727,0.2236963125428326,17.249142284397223,-10.5365452731494,2.0299259822618154,0.0,0.0,0.0,0.0,0.0,0.0,0.0,0.0,0.0,0.0,0.0,0.0,0.0,0.0,0.0,1937.6746288206673,1889.00439981025,1922.61901178554,1886.8657094822981,1930.7494197390668,1895.5354841183075,1916.5790238854859,1892.8673210480465,24.638355933753544,-1.0600453131952567,1.1887293142896256,0.1687782613582312
53,0.5400000000000003,-4.9025305453812695,1.7000955600978904,1.5934837696351625,0.8657641563962654,0.32037295677190225,0.3657912019641185,0.11836549596203057,4.23363921836809,-5.868498437452237,3.9818724593525316,-0.6457043464406371,1.1557092709386416,0.21925822002983134,17.340396380194356,-10.229523242402117,1.8710809865334355,0.0,0.0,0.0,0.0,0.0,0.0,0.0,0.0,0.0,0.0,0.0,0.0,0.0,0.0,0.0,1928.6147454723728,1889.1472665928954,1920.9364996185234,1878.8113881600975,1923.1617448223926,1894.0494587425362,1914.5653285076507,1885.0682582408313,24.58280331455785,-1.2878410319097535,1.2620276696115875,0.15508263219151208
54,0.5500000000000003,-4.859326596562928,1.6409062977915192,1.6333925507646236,0.864679370368176,0.316859079231389,0.3700247101496399,0.12252193373843816,4.407302319656011,-5.968779563419857,3.999670865436774,-0.8310402396462169,1.1686794718437579,0.21443218119620777,17.419186059012937,-9.878568263587795,1.7326852819614658,0.0,0.0,0.0,0.0,0.0,0.0,0.0,0.0,0.0,0.0,0.0,0.0,0.0,0.0,0.0,1920.001901673139,1887.9203835533897,1914.2054866837173,1874.4167295448162,1915.4011795616516,1891.8671474390521,1908.759841322916,1879.653574413326,24.55206684845703,-1.4687157230893604,1.3640965370272538,0.1418422820007153
55,0.5600000000000003,-4.814380531230686,1.580731449277412,1.6734740122176788,0.8638127604653142,0.3124609641985887,0.3742377654325966,0.12705020910411355,4.582145938878136,-6.065602950844194,4.016507766475256,-1.0367705333497195,1.207058714039198,0.2088102251659084,17.55335807887093,-9.524288902108324,1.6582184817215406,0.0,0.0,0.0,0.0,0.0,0.0,0.0,0.0,0.0,0.0,0.0,0.0,0.0,0.0,0.0,1917.09658919788,1887.9201670647833,1915.7298134959528,1866.486900275184,1912.5211041896566,1892.1542459120278,1908.4069200910249,1873.995750663744,24.45665053484585,-1.6090524480849056,1.5571035738063228,0.1348913704795503
56,0.5700000000000003,-4.7676786309696135,1.5196065373711878,1.7137209712197816,0.8631090516652096,0.3071348085158094,0.37853304358182316,0.1319988986629114,4.7585073342114175,-6.158735664916692,4.032822950402799,-1.2301793442780267,1.2718312392969942,0.20230935344437775,17.713221700662807,-9.138257492367075,1.6179808949621233,0.0,0.0,0.0,0.0,0.0,0.0,0.0,0.0,0.0,0.0,0.0,0.0,0.0,0.0,0.0,1912.4645518156553,1891.5883214937878,1916.191953743768,1862.0234782936752,1909.3397824394194,1894.3847530090509,1908.7864067710573,1869.7940202378525,24.316779494215126,-1.823778751042969,1.772600438061031,0.12646348895737478
57,0.5800000000000003,-4.719206243534427,1.457571216670809,1.7541284007509528,0.8624462959067509,0.300926839898271,0.3830834858167048,0.1373916540408773,4.93619721860045,-6.247570104282784,4.048570302531463,-1.3998248985610662,1.3904397672381361,0.19535110466443986,17.839595000526565,-8.680413770187911,1.5556482605880717,0.0,0.0,0.0,0.0,0.0,0.0,0.0,0.0,0.0,0.0,0.0,0.0,0.0,0.0,0.0,1900.1580691226143,1896.9341754259779,1916.7953063911077,1854.011919402652,1899.6782822179384,1896.7293470384782,1908.210581653025,1862.8952924810537,24.06833495495995,-2.0099315578377355,1.9334085299508987,0.11596503318398067
58,0.5900000000000003,-4.668951366921435,1.3946719151433358,1.7946894767447044,0.861705093479427,0.2938040966973445,0.38808539086510274,0.1432941521226526,5.114984308687987,-6.3314195497343135,4.063515907119563,-1.5910674212505713,1.5491490360944147,0.18796958296421773,17.948145676228933,-8.153045446287699,1.4683023424328923,0.0,0.0,0.0,0.0,0.0,0.0,0.0,0.0,0.0,0.0,0.0,0.0,0.0,0.0,0.0,1891.6853707384341,1895.0247740753327,1918.0255367943728,1841.5411998110521,1890.9836770465752,1894.8465545845845,1907.3021355329522,1852.5807449781785,23.67514249235278,-2.2634824126397004,2.1257590800915165,0.09810541347759527
59,0.6000000000000003,-4.616905151531528,1.330962684564469,1.8353939705238815,0.8608293369216795,0.2856964923438601,0.39360548696897535,0.14975008375728005,5.294374549256242,-6.409406118247445,4.077163873210565,-1.779099321357472,1.7083217657067769,0.1800187258794208,17.993651353501505,-7.531222964583861,1.320929125778747,0.0,0.0,0.0,0.0,0.0,0.0,0.0,0.0,0.0,0.0,0.0,0.0,0.0,0.0,0.0,1882.3487017107218,1886.0703331852112,1908.5299366941367,1831.529021370752,1881.158673162314,1885.9481244767028,1898.4205890631736,1841.496710474133,23.64582717946062,-2.5219962737830532,2.3183276607169647,0.07961889355242116
60,0.6100000000000003,-4.563065791241342,1.2665071464754978,1.8762252304644464,0.8597898719549857,0.2765292259231489,0.3996396530210571,0.15678364400403025,5.473472253376407,-6.480519241329238,4.088749480616868,-1.9975778416893133,1.8817517979430438,0.17094513933792976,17.939882393630313,-6.805698050330378,1.0916491793118155,0.0,0.0,0.0,0.0,0.0,0.0,0.0,0.0,0.0,0.0,0.0,0.0,0.0,0.0,0.0,1869.21436527872,1870.9411207669302,1897.0326532345766,1810.5731125804418,1867.1536969611275,1871.123379670104,1884.824142930656,1822.2374130584597,23.873182667229162,-2.7912863685347054,2.563263492954526,0.06717334644263646
61,0.6200000000000003,-4.507430487945174,1.2013743350798705,1.9171658776092448,0.8585539037276755,0.2661726166907314,0.406195765868545,0.16444552991323455,5.6539613485411735,-6.54492981293261,4.099289525410001,-2.2333375443730867,2.0628896665355816,0.16053977613077552,18.15457088402095,-6.1378070768824955,1.0320084787593942,0.0,0.0,0.0,0.0,0.0,0.0,0.0,0.0,0.0,0.0,0.0,0.0,0.0,0.0,0.0,1869.1244218553531,1869.1615117702013,1897.2517978696226,1804.7405643934717,1867.4573982296351,1870.2269621577746,1885.1758772074566,1817.7679375437494,23.8515616879928,-3.1093011094698655,2.8863295126976136,0.05591759031288276
62,0.6300000000000003,-4.449973373198388,1.1356298250055363,1.9582127823540696,0.8570556950515671,0.2545258216057354,0.41330483797297196,0.1727751504810108,5.838153501429167,-6.60284242448218,4.110183221348377,-2.4840604349341606,2.2708726066540397,0.14913865345385532,18.585917339047242,-5.472292413469582,1.0992627100483432,0.0,0.0,0.0,0.0,0.0,0.0,0.0,0.0,0.0,0.0,0.0,0.0,0.0,0.0,0.0,1875.857239838513,1879.505743851699,1910.0023920311307,1808.244003269607,1875.3593244209603,1880.3194506355999,1897.1493530250057,1823.367450110008,23.715100006769365,-3.402455236234127,3.1733095653610137,0.04292456248943094
63,0.6400000000000003,-4.390657611094444,1.0693431926185142,1.999368293909787,0.8551806406888028,0.241439977771128,0.42107427990709356,0.1818495524484147,6.0254505652297725,-6.653101650689976,4.120808030786866,-2.7653768572909088,2.5271131879984936,0.13686567413334294,18.85302999143068,-4.646845390023913,1.0315433449008538,0.0,0.0,0.0,0.0,0.0,0.0,0.0,0.0,0.0,0.0,0.0,0.0,0.0,0.0,0.0,1872.3297001211251,1882.1013810602665,1918.2521613792521,1798.6812813429847,1872.0775888022927,1881.714868623784,1902.3678000611528,1816.3787840644131,23.680068795773348,-3.5848166400343904,3.3919359777532105,0.026280312173311213
64,0.6500000000000004,-4.32945822070052,1.0025979444120598,2.0406243485879574,0.8528021977224509,0.22678669510472085,0.4295799237333133,0.19172192260802365,6.214742900132045,-6.694364105468988,4.1301541755797135,-3.0511630250752226,2.7956959475267267,0.123619142805199,19.02708105139883,-3.696518644771274,0.8738735952515952,0.0,0.0,0.0,0.0,0.0,0.0,0.0,0.0,0.0,0.0,0.0,0.0,0.0,0.0,0.0,1866.2793364757686,1877.978418757831,1915.5125521317123,1790.9981782608386,1865.7715793207833,1877.3280551632433,1899.6929957732716,1808.195807072016,23.700034405244146,-3.7307911481156566,3.5548375623276223,0.0073787696531093135
65,0.6600000000000004,-4.266355134094841,0.9354886873647874,2.0819667680304144,0.8498131228449836,0.2106384394985023,0.43877037264528074,0.20231081072155832,6.4062842798189275,-6.7257839155754775,4.138092584752738,-3.289408244572088,3.0433121485861325,0.10920653487724581,19.26784738318421,-2.677693043383833,0.7299033528829213,0.0,0.0,0.0,0.0,0.0,0.0,0.0,0.0,0.0,0.0,0.0,0.0,0.0,0.0,0.0,1863.2577529079729,1878.4065960080031,1906.9844844928027,1796.4345588528024,1863.7772995827775,1877.062950955895,1894.3113194342018,1810.5011533561521,23.522585847903816,-3.8732390453543486,3.7107512685934814,-0.007678305052206012
66,0.6700000000000004,-4.2013234995380895,0.8681174609186886,2.1233815116555808,0.846137135348425,0.1931960967540098,0.4485142581794599,0.2134529845026887,6.60048873752853,-6.746637634288861,4.144595504735615,-3.48691265400403,3.255686915663562,0.09353859017349328,19.537479242566214,-1.5879697021912165,0.5762143526251151,0.0,0.0,0.0,0.0,0.0,0.0,0.0,0.0,0.0,0.0,0.0,0.0,0.0,0.0,0.0,1864.5666557027023,1879.179848065917,1898.848228102579,1805.7084305597102,1865.0527041489302,1878.0449320532166,1888.6134922455715,1817.337177944029,23.814551004107795,-4.028851234575931,3.9191428578710945,-0.020475216113533028
67,0.6800000000000004,-4.134341357193047,0.8005942164193578,2.1648500271648357,0.8417265032004179,0.17461432582892725,0.45866764706922747,0.2250118231499953,6.796104496856259,-6.756048536750003,4.148636289996904,-3.660134881179064,3.444855795969724,0.07695339616797252,19.62107983640049,-0.4101853277784784,0.2849175517853908,0.0,0.0,0.0,0.0,0.0,0.0,0.0,0.0,0.0,0.0,0.0,0.0,0.0,0.0,0.0,1858.3463433006073,1872.0274923308396,1887.062140318044,1804.6765519529902,1858.375426596889,1870.520787843467,1877.420903782643,1814.9509524553703,24.62686265471855,-4.122060516694563,4.069568687445337,-0.03436898220976002
68,0.6900000000000004,-4.065389022730463,0.7330357621640676,2.2063499996011173,0.8365081994694792,0.15495748307993754,0.46916451531150427,0.23691109773580143,6.995004013084579,-6.7536175835842505,4.151137438365357,-3.8256185401402365,3.642485665894783,0.05976228239808181,20.032281635529614,0.7968866457632728,0.17011752568230065,0.0,0.0,0.0,0.0,0.0,0.0,0.0,0.0,0.0,0.0,0.0,0.0,0.0,0.0,0.0,1866.76616772748,1883.8605250587118,1898.0733453264604,1815.8150670300206,1868.3663474619884,1882.4767103692363,1888.6321001692131,1827.7445671204807,24.981010958040606,-4.141030304151008,4.186486010412977,-0.054134627038830464
69,0.7000000000000004,-3.9944150218440746,0.6655635522683754,2.2478757883107328,0.8304015399147733,0.13430681320456414,0.47995905770808506,0.24906678895022294,7.2010102971158645,-6.738642300734191,4.154081560368,-3.957762419908632,3.820074906988487,0.04206389274138975,20.842353627966936,2.094379273041902,0.25799139549942396,0.0,0.0,0.0,0.0,0.0,0.0,0.0,0.0,0.0,0.0,0.0,0.0,0.0,0.0,0.0,1896.3987519956636,1914.3162230096061,1923.2434382913536,1853.1206796594622,1899.200192291218,1913.7454759110644,1917.0849851488906,1863.6142417618441,25.233937070950446,-4.160308291548367,4.28913085100316,-0.07707976498635122
70,0.7100000000000004,-3.9213513771795943,0.5983083957267032,2.289428223777065,0.8233663993053757,0.11286461418698042,0.4909567088947852,0.26132520228735234,7.412320471348095,-6.710056593251915,4.156051263147276,-4.038822762738756,3.9727708058282545,0.023652635418656483,21.249829438038326,3.489966802649569,0.07434603836209419,0.0,0.0,0.0,0.0,0.0,0.0,0.0,0.0,0.0,0.0,0.0,0.0,0.0,0.0,0.0,1909.331956621964,1930.3516191164535,1929.4557008247725,1875.9158009391933,1912.157649841619,1928.162273061476,1924.9776508227076,1882.8952478323208,25.486595365768242,-4.192907603792227,4.3622357210735485,-0.09480886296772827
71,0.7200000000000004,-3.8461585323956857,0.531410087345351,2.330988095544348,0.8153853191575302,0.09082688255020313,0.5020689973053282,0.2735397240866615,7.626591037153039,-6.66719189457506,4.155372769631207,-4.092814543094648,4.104937315426534,0.004378839417534431,21.487663268281665,4.937147352435112,-0.2358779516873355,0.0,0.0,0.0,0.0,0.0,0.0,0.0,0.0,0.0,0.0,0.0,0.0,0.0,0.0,0.0,1919.473039411095,1940.6648391462772,1933.5751303600641,1891.0285916400594,1922.0079802985704,1938.2952532447794,1929.895469739465,1896.6983307093112,25.78721653286854,-4.239728401180791,4.446534485019324,-0.10974625852473355
72,0.7300000000000004,-3.7688126773031883,0.4650137253016575,2.372524243012767,0.8064681482129298,0.0683032170802997,0.5131904864559821,0.2856209394732153,7.842789255394517,-6.609606151089074,4.151192154596668,-4.137253839858631,4.21266699529461,-0.0153620635850529,21.644611442389383,6.423357222713477,-0.6159468360440457,0.0,0.0,0.0,0.0,0.0,0.0,0.0,0.0,0.0,0.0,0.0,0.0,0.0,0.0,0.0,1931.0616232307875,1947.9127949476444,1939.3874935032588,1904.94061510798,1932.7916123608386,1946.2381667085294,1936.5175216563491,1909.8049826192575,26.083510067831824,-4.22077414343357,4.458828771809258,-0.12364701146992656
73,0.7400000000000004,-3.689297429594325,0.3992685425003142,2.413998885404513,0.7966286016541857,0.04534377276984907,0.524220522207392,0.29752253258215994,8.06038844376506,-6.5368940931222745,4.142993793153394,-4.182564755964453,4.311131380676055,-0.0351760042912044,21.75768839279968,7.949547432660076,-1.0408203898810697,0.0,0.0,0.0,0.0,0.0,0.0,0.0,0.0,0.0,0.0,0.0,0.0,0.0,0.0,0.0,1943.2732166375397,1957.2240466577032,1949.98610019502,1917.9520321397606,1944.847441146132,1955.8416196958685,1947.1249574945186,1923.001543201812,26.322515514654317,-4.118761479747957,4.466073953146866,-0.14284690355198426
74,0.7500000000000004,-3.6076022621194745,0.3343274571582434,2.4553689766769837,0.7858972154708419,0.02205009598462955,0.5350601515408827,0.3091763157411854,8.27862245462054,-6.448756382523074,4.130174862524961,-4.197907477119999,4.37352245713602,-0.05481233594196584,21.780688603723064,9.497034965436413,-1.5306394358782782,0.0,0.0,0.0,0.0,0.0,0.0,0.0,0.0,0.0,0.0,0.0,0.0,0.0,0.0,0.0,1955.6576233768344,1965.893737841754,1954.8604582340865,1936.6922878858265,1956.9624258453139,1964.7681809551711,1954.5531049185422,1939.1101365434392,26.611794102857935,-4.034558544620421,4.509645611757616,-0.16461335912671282
75,0.7600000000000005,-3.5237267153315557,0.2703449063704618,2.4965844948978857,0.7743407476755105,-0.0013495140903731929,0.5456279478900148,0.3204445783320146,8.496247734208602,-6.345219852001359,4.111946946566387,-4.160081750659569,4.4135154106874275,-0.0743707082470283,21.667646862045586,11.026608025255236,-2.1035553966148868,0.0,0.0,0.0,0.0,0.0,0.0,0.0,0.0,0.0,0.0,0.0,0.0,0.0,0.0,0.0,1962.635977835925,1976.7789806903656,1956.308021072652,1953.555085516242,1965.1395812915678,1974.3157955393735,1958.0764594711347,1953.6136823791364,26.91757411232322,-4.012246763525878,4.499387941957675,-0.18088967021850458
76,0.7700000000000005,-3.4376811866201598,0.20747443957466244,2.5375884199642527,0.7619952538148662,-0.024676128266660796,0.5559274480713903,0.3312083850662852,8.712530273773593,-6.226352858656995,4.087784251976366,-4.102303936531098,4.455477121143889,-0.09400747113044673,21.505280343394162,12.551953261703552,-2.7181388178760812,0.0,0.0,0.0,0.0,0.0,0.0,0.0,0.0,0.0,0.0,0.0,0.0,0.0,0.0,0.0,1971.3342604744428,1989.7240605091736,1964.8674218467231,1966.0261304883402,1974.5222439287386,1986.7801537876096,1966.4779745798871,1966.3808573295325,27.301738829264742,-4.021445442405078,4.475279600842313,-0.19437155952041588
77,0.7800000000000005,-3.349482202418013,0.14586882124138756,2.578318969448184,0.7489019655845917,-0.04789360944932509,0.5659185533063943,0.34145020008933713,8.926815386226313,-6.0922853275059,4.057186878654192,-4.06078285999351,4.475499762141236,-0.1134361192262892,21.270745757329124,14.059430646104154,-3.383870950995238,0.0,0.0,0.0,0.0,0.0,0.0,0.0,0.0,0.0,0.0,0.0,0.0,0.0,0.0,0.0,1986.3488627569668,1996.63129643373,1975.3329414619948,1978.783475746639,1987.6883007076403,1995.5376466985574,1977.040207854747,1979.1353332238077,27.592329820703114,-3.9387528902556332,4.398974032830953,-0.20706862607317142
78,0.7900000000000005,-3.2591521084333124,0.08567990098730824,2.618709934547404,0.7351340316641444,-0.07102581757338065,0.5754802854543777,0.3512203436314611,9.138689877318209,-5.943009319843922,4.019822787900749,-4.041453514778819,4.477599321015522,-0.13236338026013883,21.005773883556955,15.575051260826811,-4.074362032227441,0.0,0.0,0.0,0.0,0.0,0.0,0.0,0.0,0.0,0.0,0.0,0.0,0.0,0.0,0.0,2004.2084945555225,2005.5771070350268,1989.8764988251878,1993.3634781770766,2004.521121448219,2005.7828973502499,1991.4762444197897,1994.0911160651083,27.817063387195944,-3.769818131066875,4.325136385191289,-0.22306716241371358
79,0.8000000000000005,-3.166720297511247,0.027057889581154123,2.658690964587358,0.7207851294144826,-0.09399901612495108,0.5845203008546855,0.36051213581686364,9.346911606338796,-5.779032698659699,3.9750917872764995,-3.992028026971246,4.4470039846061455,-0.1506343695552999,20.583555900646644,17.012111364986815,-4.83486683371126,0.0,0.0,0.0,0.0,0.0,0.0,0.0,0.0,0.0,0.0,0.0,0.0,0.0,0.0,0.0,2015.9136175943615,2014.233607153389,1995.091899435488,2010.84329517674,2016.3406597605408,2014.033003630255,1999.0088698701538,2008.924275918788,28.116509181445778,-3.636896944241628,4.330246531015648,-0.24028085669142474
80,0.8100000000000005,-3.0722305258081226,-0.02985450930287311,2.6981853600433596,0.7059808868538558,-0.11659372617695472,0.593024726191432,0.3692134403550249,9.550081093803959,-5.6012459134901755,3.9224175682575346,-3.8886744978355376,4.398805731020088,-0.168284523646506,20.032188631127212,18.351899692621743,-5.646573323552673,0.0,0.0,0.0,0.0,0.0,0.0,0.0,0.0,0.0,0.0,0.0,0.0,0.0,0.0,0.0,2021.3244024130454,2024.961984190572,1996.6250320340182,2026.243109967261,2023.1149068574725,2023.2208367658395,2002.4431635578042,2022.1636141311728,28.43110183617537,-3.5950181519076145,4.261784080275723,-0.2533572143275106
81,0.8200000000000005,-2.975736507380303,-0.08492214953359759,2.737112331095863,0.6907769665961223,-0.13867906757562484,0.6010772854542797,0.377228572019047,9.747727140331605,-5.410142298203676,3.861583368749417,-3.773210528120315,4.373408026724527,-0.1854185849809958,19.465550446041036,19.660756197042772,-6.470694419765444,0.0,0.0,0.0,0.0,0.0,0.0,0.0,0.0,0.0,0.0,0.0,0.0,0.0,0.0,0.0,2028.1207273444097,2039.4701253403935,2008.6136924934733,2035.8027256148753,2031.121174488023,2036.8224454700978,2013.177884337923,2033.1417858514058,28.852007553980037,-3.6021353134473935,4.131538168964771,-0.2636376618851932
82,0.8300000000000005,-2.877295257345629,-0.13801416143693074,2.7753891476618144,0.6751972133134283,-0.16029162200723754,0.6086885489324237,0.38459533206554936,9.939441159833292,-5.206219757883465,3.7923437826005153,-3.691316688076311,4.329483838099984,-0.20193246491964129,18.848364851747235,20.91311684859498,-7.3214093990663365,0.0,0.0,0.0,0.0,0.0,0.0,0.0,0.0,0.0,0.0,0.0,0.0,0.0,0.0,0.0,2044.0012328635025,2045.466243615399,2021.2201403323763,2046.5164747540143,2044.521810481932,2045.3372226189965,2025.4084044458932,2044.2781352943398,29.110069348437975,-3.5341080736502613,3.9937568784980364,-0.27357665576664403
83,0.8400000000000005,-2.7769670523044296,-0.18900342313364743,2.812931083893945,0.6593379248683939,-0.18149548360687257,0.615705636527934,0.391458119609594,10.125109651469366,-4.989594630638544,3.7146067241873637,-3.6487595580342176,4.249796072151143,-0.2176432802196129,18.233677508817436,22.17298302015891,-8.171688087276419,0.0,0.0,0.0,0.0,0.0,0.0,0.0,0.0,0.0,0.0,0.0,0.0,0.0,0.0,0.0,2066.09598575794,2051.9360734215543,2036.2673596722166,2062.3263215127395,2064.4582126638043,2054.3674128197986,2040.7076774643642,2060.180072343352,29.311985079896445,-3.3970438738290283,3.8307601309323434,-0.28591764805341796
84,0.8500000000000005,-2.674817170163349,-0.23776753970471193,2.8496520792794855,0.6433199568512056,-0.20226550513777014,0.6220156206688471,0.3979003219303481,10.30352717886986,-4.7614601340607186,3.628112460234348,-3.593166281763968,4.146213129607793,-0.23250523722862154,17.45581446207467,23.26215448834823,-9.053552609540994,0.0,0.0,0.0,0.0,0.0,0.0,0.0,0.0,0.0,0.0,0.0,0.0,0.0,0.0,0.0,2077.0168987334355,2058.8712203213117,2042.7300812428948,2075.7183364827683,2075.549817908512,2060.6228682815813,2048.260535954402,2071.926364939046,29.623392865818502,-3.2521793241119763,3.783105347997012,-0.29797718134126855
85,0.8600000000000005,-2.570924211997644,-0.2841985833299622,2.8854638334333726,0.6272843709154305,-0.22246042101441754,0.6276161968114196,0.40388561324623845,10.473596283813096,-4.52317887579988,3.532765334450386,-3.5007984755489305,4.017793392781169,-0.2466060675897588,16.593106901428456,24.227217473732132,-9.934357038899222,0.0,0.0,0.0,0.0,0.0,0.0,0.0,0.0,0.0,0.0,0.0,0.0,0.0,0.0,0.0,2083.6181692995124,2066.356242342829,2044.2091194103346,2089.054288265216,2082.660738396437,2067.433731343766,2051.5639921939346,2083.233388029174,29.919968766945416,-3.1797689428909615,3.6652627768096613,-0.3069426662043041
86,0.8700000000000006,-2.465372655703608,-0.3281977823724646,2.9202785917942538,0.6113007255711657,-0.24198505767391668,0.6326117196563383,0.4093373510103472,10.635283340345207,-4.275111014142674,3.4287461329039526,-3.38547546231364,3.923859948711889,-0.2599697154984135,15.75855102371193,25.190143647397356,-10.794112130180444,0.0,0.0,0.0,0.0,0.0,0.0,0.0,0.0,0.0,0.0,0.0,0.0,0.0,0.0,0.0,2088.3487791338434,2082.908247067191,2056.8711309940545,2098.372718214551,2089.754441407029,2082.01290366872,2063.07559034839,2093.9708232180287,30.338924119590434,-3.22296581761083,3.399314233466589,-0.3148163996101362
87,0.8800000000000006,-2.358246750897569,-0.36966973600732117,2.9540100974497716,0.5953702784180189,-0.2608627123071342,0.6370838133656129,0.41425727712587607,10.788411829741449,-4.017869094238179,3.316122790352042,-3.2903226317582286,3.8191102401607817,-0.27252988408649514,14.890048403470857,26.070245855047247,-11.650563700901895,0.0,0.0,0.0,0.0,0.0,0.0,0.0,0.0,0.0,0.0,0.0,0.0,0.0,0.0,0.0,2100.9715889612808,2090.378381123504,2068.2754359933942,2108.552757458656,2100.5070551914564,2091.336495434678,2074.2891352275165,2104.276854462285,30.551052909784506,-3.2495699795524353,3.1587817890195384,-0.3231473359051547
88,0.8900000000000006,-2.2496319039494295,-0.4085237850026654,2.9865728468714696,0.5796057252770341,-0.27913699544506765,0.64085978758701,0.418853761656638,10.93310888603893,-3.7514974358431763,3.1950362326020523,-3.2577859196745638,3.64682012185392,-0.28422214234793214,14.049923561451294,26.980060047453236,-12.483601353032281,0.0,0.0,0.0,0.0,0.0,0.0,0.0,0.0,0.0,0.0,0.0,0.0,0.0,0.0,0.0,2127.6062100012714,2091.5616444247153,2081.0513012629103,2125.331456852546,2122.7818366022493,2097.4343534212494,2087.7188343539833,2120.789054961809,30.718818595127825,-3.392844179948144,2.7263041672297024,-0.33437110209829923
89,0.9000000000000006,-2.1396156799460218,-0.44467431889523024,3.0178835381095226,0.564145213441466,-0.2968321773510605,0.643730820027941,0.4233691863920496,11.068491787764062,-3.4775054667541374,3.0657781683234995,-3.2503700447925543,3.446903465360248,-0.29515448334732275,13.079588457070912,27.669864496465024,-13.279861092767131,0.0,0.0,0.0,0.0,0.0,0.0,0.0,0.0,0.0,0.0,0.0,0.0,0.0,0.0,0.0,2140.625270174589,2093.2718644955416,2088.417433838939,2133.899777407419,2135.0290322727606,2099.311592845618,2094.6270058966907,2129.088749032248,30.884895622254163,-3.315292991367119,2.455811185767921,-0.3414729834082188
90,0.9100000000000006,-2.028295541055049,-0.4780529604733215,3.0478629509838124,0.5491463731253023,-0.31394582108488545,0.6454674675195731,0.4280747956613802,11.193812082228773,-3.197269490946498,2.928903504858251,-3.311900379950718,3.1488558080137627,-0.3054981885546648,12.055310219629689,28.259582293059804,-14.005160165277086,0.0,0.0,0.0,0.0,0.0,0.0,0.0,0.0,0.0,0.0,0.0,0.0,0.0,0.0,0.0,2162.3649079805323,2082.796878777368,2089.31699852487,2144.5679667173986,2151.320182043954,2094.5239734087068,2096.783262020334,2138.3282116075693,30.866946565760546,-3.0041061873935613,2.175600368868396,-0.34325249392769847
91,0.9200000000000006,-1.9157739688667004,-0.5086006081087544,3.0764390926429104,0.5347868041926838,-0.3303814343717979,0.6459749847133532,0.4330906383291987,11.308743058200063,-2.9113941569977593,2.7852758170362084,-3.307532957708246,2.8641612933529794,-0.3151477660482737,11.009213723500721,28.799575777459285,-14.639716952515425,0.0,0.0,0.0,0.0,0.0,0.0,0.0,0.0,0.0,0.0,0.0,0.0,0.0,0.0,0.0,2161.952433213339,2094.5021430305283,2091.580731288632,2154.14644241189,2155.5119823309515,2101.32183245325,2100.2717529968822,2146.7321327428554,30.482506422438266,-2.7949819893414474,1.7611081648339675,-0.345371792681852
92,0.9300000000000006,-1.8021574681995305,-0.5362682066318872,3.103549118949611,0.5212321485764535,-0.3458794959456944,0.6455581191352999,0.4381085897277297,11.412728257844186,-2.621588191812403,2.635836334726791,-3.165309483327373,2.5803328652236983,-0.32355772159561785,9.908291772767086,29.122549167722056,-15.180014928343866,0.0,0.0,0.0,0.0,0.0,0.0,0.0,0.0,0.0,0.0,0.0,0.0,0.0,0.0,0.0,2149.0145509882145,2105.910343378187,2080.1152140702734,2165.732661726616,2146.4557253119215,2108.082493609121,2093.0932641784757,2153.730268632444,29.941944318847863,-2.5958739144789256,1.4368437493521895,-0.3486227345509961
93,0.9400000000000006,-1.6875588653188778,-0.5610324629392051,3.129140219033668,0.5087514811544799,-0.36016586091441577,0.6443974037921343,0.44294973647227465,11.505084935247996,-2.331315153581675,2.4816899336429263,-2.9972417473839235,2.241119653285044,-0.330490589029829,8.741507212297606,29.051232384892156,-15.598923763758155,0.0,0.0,0.0,0.0,0.0,0.0,0.0,0.0,0.0,0.0,0.0,0.0,0.0,0.0,0.0,2138.6276444061596,2089.9573168600164,2058.2538240316862,2162.789810499338,2132.8288465399105,2094.266040392318,2072.481512996611,2148.422774974578,30.393212702672596,-2.4566567791648426,0.9981029968322119,-0.3549460934481721
94,0.9500000000000006,-1.572094800323471,-0.582903333882663,3.1531715258713633,0.49751085697999836,-0.37314909984386524,0.6425298946152546,0.4476583864940438,11.585894726736857,-2.043236547297307,2.3240801700145344,-2.8152628734947474,1.9090653688265038,-0.3361038395599452,7.612586476817285,28.76409607326691,-15.89363397294008,0.0,0.0,0.0,0.0,0.0,0.0,0.0,0.0,0.0,0.0,0.0,0.0,0.0,0.0,0.0,2118.219585426947,2072.8740084409046,2038.9389100453575,2145.557116888446,2113.1382115829547,2075.9095348080054,2051.9759068526832,2131.6616907482303,30.992090359629216,-2.147227597643653,0.7787832739418441,-0.3578469398150548
95,0.9600000000000006,-1.4558691593289717,-0.6018833669683838,3.175611208922737,0.4875937637329261,-0.38481940112748947,0.6399712983512101,0.45233072786547024,11.657930391659908,-1.7519224078793738,2.1633874300922242,-2.6536983284050497,1.5313460366691698,-0.3407960994602225,6.840561772525788,29.31127247829024,-16.184125966704155,0.0,0.0,0.0,0.0,0.0,0.0,0.0,0.0,0.0,0.0,0.0,0.0,0.0,0.0,0.0,2138.38019847695,2080.852752776485,2049.8009950552478,2162.454780926091,2132.3138295932035,2088.369934917526,2065.5177505146335,2149.2133095058193,31.28296518296151,-1.7367932020721906,0.5935673012436833,-0.3576284840645869
96,0.9700000000000006,-1.3389594061750365,-0.6179178651230914,3.1964305101296304,0.4790564314977599,-0.3951535786727915,0.6368469752407482,0.45692944185008244,11.722875494090413,-1.4539175496394907,2.000115264009854,-2.42390156186222,1.2211500716831711,-0.3446048879020257,6.170546260555909,30.0153301781112,-16.410580714326883,0.0,0.0,0.0,0.0,0.0,0.0,0.0,0.0,0.0,0.0,0.0,0.0,0.0,0.0,0.0,2145.907967728388,2114.1258325954173,2072.608149677709,2180.7417941881477,2145.937324555399,2116.019896089812,2087.8358312128544,2168.5240423894957,31.561330770681362,-1.423860458639207,0.28074178215088325,-0.35641117246299103
97,0.9800000000000006,-1.2214346456518301,-0.6309454416234228,3.2156080519416936,0.4718763440529746,-0.40412935631222385,0.6335356543004951,0.4611342039145547,11.780957190926896,-1.1509870247043754,1.8351948769599715,-2.11403518662217,0.9618239172986233,-0.3474789922869747,5.503343581212405,30.419531318367497,-16.537309437200552,0.0,0.0,0.0,0.0,0.0,0.0,0.0,0.0,0.0,0.0,0.0,0.0,0.0,0.0,0.0,2143.0874279063737,2137.386061112356,2082.3602325359384,2192.468162375932,2146.007778419219,2135.396226932809,2098.075174518705,2178.817871254327,31.685704891381196,-1.1524716741877326,0.06007198175499873,-0.35665201890940873
98,0.9900000000000007,-1.1033608402060713,-0.640924902045268,3.23313125246564,0.46611600339162607,-0.4117034333201794,0.6302165736510601,0.46482601548333374,11.83284106674992,-0.8443800411949298,1.6693530845315108,-1.8055482309264363,0.679048316548981,-0.3494673647793417,4.927605799128543,30.767421112967153,-16.600299960887632,0.0,0.0,0.0,0.0,0.0,0.0,0.0,0.0,0.0,0.0,0.0,0.0,0.0,0.0,0.0,2154.0718132241655,2144.870536174533,2089.518215635142,2204.894914244251,2154.4685579953975,2145.3360591587466,2105.8570940657078,2190.5627251457463,31.7062643701609,-1.0129491323377084,-0.2556894216836485,-0.3623048443463085
99,1.0000000000000007,-0.9847959294918859,-0.6478254249667128,3.2489946935453693,0.4617864381623522,-0.4179126435074759,0.6269010128400201,0.46807844217190625,11.879305826358761,-0.5354476225572837,1.5033785282791872,-1.5138155078126168,0.4228727213248143,-0.35076626263218263,4.424214247796598,30.950826013135035,-16.579782003595778,0.0,0.0,0.0,0.0,0.0,0.0,0.0,0.0,0.0,0.0,0.0,0.0,0.0,0.0,0.0,2157.027127638093,2150.6465654013455,2098.5803676557307,2205.346105929205,2157.819217759791,2150.2472607871177,2112.491764987053,2192.680170366224,31.958411336457946,-0.7908087321800092,-0.281718257450086,-0.36392230744810755
100,1.0100000000000007,-0.8657902298491558,-0.6516308345807714,3.2632010405179916,0.45880577070540296,-0.4228771342655647,0.6235244820245074,0.4710513925240372,11.921129024097644,-0.2255318367676591,1.338066928983302,-1.2917309726858475,0.14048413989726347,-0.3519327763849552,3.9967260295732387,31.015428254516696,-16.47845326518582,0.0,0.0,0.0,0.0,0.0,0.0,0.0,0.0,0.0,0.0,0.0,0.0,0.0,0.0,0.0,2166.3500529867197,2143.7764801581675,2102.249046748659,2202.85882633455,2163.440823813037,2146.8038565638967,2114.9504320863653,2190.888620670916,31.95073627958297,-0.5406132803936243,-0.16923218800962359,-0.36109396108653047
101,1.0200000000000007,-0.7463849924461781,-0.6523280104034116,3.2757598280503473,0.45699627407177024,-0.42677342727622647,0.6201082420996714,0.47379807443200744,11.959402674970253,0.0864874080313958,1.1739224545004578,-1.0675425268320784,-0.03317521664509394,-0.35298624054612737,3.6879068521376013,31.277646051263442,-16.345523267341065,0.0,0.0,0.0,0.0,0.0,0.0,0.0,0.0,0.0,0.0,0.0,0.0,0.0,0.0,0.0,2163.4546728340215,2163.2017944102467,2122.5688859683073,2199.338987829226,2166.125245157882,2161.337981210429,2131.6966634304777,2191.405522457645,32.09867673879846,-0.38659139627797506,-0.15856847078269481,-0.35589495225065193
102,1.0300000000000007,-0.6266121221797758,-0.6498987251364479,3.286685356139175,0.45601588088113193,-0.4298665354541297,0.616954392486887,0.47605835322154066,11.994726528806964,0.3993996324019373,1.0114964349271263,-0.8320400603068691,-0.08831337856351291,-0.353715118130913,3.416910222666658,31.297642862176012,-16.158085199873494,0.0,0.0,0.0,0.0,0.0,0.0,0.0,0.0,0.0,0.0,0.0,0.0,0.0,0.0,0.0,2149.1953856355008,2177.0109872710477,2135.16764303838,2188.0456028761264,2155.217042136664,2171.057621065622,2141.026480230145,2182.4137727609636,32.56172523056952,-0.29423035518323193,-0.11033277935829741,-0.3534881668799027
103,1.0400000000000007,-0.5064975791586099,-0.6443358367207764,3.2959954827511324,0.455611272241598,-0.4323665453327471,0.6142162709965986,0.47771949041927403,12.027880732879668,0.7133756898374496,0.8508131673659808,-0.6344551463323352,-0.11726298383389033,-0.3540046511758959,3.235221001345323,31.433084926248856,-15.989569392566239,0.0,0.0,0.0,0.0,0.0,0.0,0.0,0.0,0.0,0.0,0.0,0.0,0.0,0.0,0.0,2153.3684211344907,2181.4131505610776,2146.4614032443133,2187.4154558989453,2157.641591234961,2177.6253037131933,2151.619529901555,2182.899689084711,32.806088144937924,-0.2862789709293975,-0.22426549164046922,-0.35671767952570227
104,1.0500000000000007,-0.38605821196196516,-0.6356179859281577,3.3037059897958017,0.45561318238859555,-0.4344364164055686,0.6118571844998257,0.4788657577133388,12.059841338334246,1.030809068499341,0.6915047784824566,-0.48375511990359676,-0.11342986212710633,-0.3539890759262097,3.1498828446547833,31.854709624650646,-15.866058171314478,0.0,0.0,0.0,0.0,0.0,0.0,0.0,0.0,0.0,0.0,0.0,0.0,0.0,0.0,0.0,2168.941420121273,2195.497666081527,2169.335362216006,2195.2501255520883,2173.3279811043585,2192.66732821166,2172.75455851486,2193.414928747287,33.122550794830445,-0.20083732709185642,-0.12300003755797029,-0.3579980045331931
105,1.0600000000000007,-0.26530355000782985,-0.6237102335482338,3.3098301611363263,0.45592493980928717,-0.4361879181461736,0.6097309837453102,0.4796881036508839,12.090957744745328,1.351066568829159,0.5335810893594256,-0.3972204697129941,-0.1599210009354331,-0.35410182524094574,3.072988600660409,32.08267976733459,-15.719748283586243,0.0,0.0,0.0,0.0,0.0,0.0,0.0,0.0,0.0,0.0,0.0,0.0,0.0,0.0,0.0,2188.2720325340956,2193.7818960628974,2177.8436114412953,2203.245594551218,2188.2737343291587,2194.6676600307023,2181.4795126059666,2200.49446268038,33.01231969705608,-0.11807248071513417,0.18464102880969024,-0.35457963860930153
106,1.0700000000000007,-0.1442408444081994,-0.6085870063526365,3.314382369382262,0.4564747803331429,-0.4376989024669811,0.6077643934335446,0.48028417397761963,12.121504944473553,1.6739798194818687,0.3771038134018859,-0.3092321554013739,-0.14297812658098644,-0.3543623982644523,3.029836619584003,32.361313067632565,-15.578129625958614,0.0,0.0,0.0,0.0,0.0,0.0,0.0,0.0,0.0,0.0,0.0,0.0,0.0,0.0,0.0,2192.7409382148153,2210.362125682112,2195.0124410514577,2206.83137336563,2196.53904492916,2207.659011235751,2196.40068334651,2206.5108249805708,32.8547561809588,-0.06678449135792452,0.4442216754855578,-0.34605936980839086
107,1.0800000000000007,-0.02287595436145634,-0.5902323009610754,3.3173779510162404,0.45697768312361003,-0.43919567053063324,0.6061763857314016,0.48044640647603976,12.151350708540317,1.9967710339016793,0.22227431302802533,-0.22396558836947322,-0.004710575854754378,-0.3544402968844801,2.954017704423606,32.23778231834351,-15.417193336239032,0.0,0.0,0.0,0.0,0.0,0.0,0.0,0.0,0.0,0.0,0.0,0.0,0.0,0.0,0.0,2176.5868448092533,2219.735493189647,2205.333545287445,2191.1071375072543,2183.605230154048,2212.558351006224,2202.193247264909,2194.008328622128,32.71070081783551,0.0521873709440258,0.5296426701455361,-0.3408961440634746
108,1.0900000000000007,0.09878364038801231,-0.5686580371228264,3.318832417545502,0.45714455189149134,-0.4409119000930039,0.6051528393248315,0.480005829224395,12.180454997662817,2.3177774867171683,0.06878827168778338,-0.15397827592781532,0.18303970439064063,-0.35394122438231523,2.882843989397088,32.036237790801444,-15.309588176067686,0.0,0.0,0.0,0.0,0.0,0.0,0.0,0.0,0.0,0.0,0.0,0.0,0.0,0.0,0.0,2166.489220754346,2218.058442864949,2207.5906415640993,2179.9143320867283,2173.253639815281,2210.911086330476,2203.492945018471,2183.5953995011223,32.66617623366735,0.13445328012242763,0.43520525770250884,-0.3432013923203603
109,1.1000000000000008,0.22073096757976626,-0.5438837486161178,3.3187560818731585,0.45697451262438143,-0.44284428931681286,0.6047094727612737,0.4789464310170589,12.208922481587333,2.6367681600108246,-0.08399279820824652,-0.06072531676638001,0.3273722411276247,-0.3529547007117018,2.82658156073623,31.831458027467008,-15.266701369357593,0.0,0.0,0.0,0.0,0.0,0.0,0.0,0.0,0.0,0.0,0.0,0.0,0.0,0.0,0.0,2164.156411105556,2210.016444501711,2197.05642026698,2181.6645991483765,2169.5567206196047,2204.256940178601,2196.1564521856976,2182.0780619038123,33.0023582246704,0.11108828132299886,0.5043625150134802,-0.3469334492270586
110,1.1100000000000008,0.3429609081405918,-0.5159273205613041,3.3171528172209452,0.45671250164567195,-0.4447918687487906,0.6046995280031594,0.4774016811535829,12.237032406643381,2.9543257860309997,-0.23667804318258168,0.026619049600793598,0.37172282214458907,-0.3520439337818613,2.8043690592678416,31.709531552786885,-15.27516420189523,0.0,0.0,0.0,0.0,0.0,0.0,0.0,0.0,0.0,0.0,0.0,0.0,0.0,0.0,0.0,2173.7106122384616,2197.8681080397514,2184.847385883917,2190.073563741646,2175.587457399975,2195.9098524413944,2186.97444870247,2187.731264475322,32.47586108159133,0.06200510360162199,0.8371868957797302,-0.34688052593386953
111,1.1200000000000008,0.46547260299303517,-0.4847911269711355,3.3140205474704896,0.4564444918677063,-0.4467019916153768,0.6049424953627147,0.4755631754402552,12.265368575072692,3.273235871290212,-0.389896945981859,0.06354134066360052,0.4279423096944336,-0.35147361199851523,2.845760559004873,31.93955831322004,-15.351049661495919,0.0,0.0,0.0,0.0,0.0,0.0,0.0,0.0,0.0,0.0,0.0,0.0,0.0,0.0,0.0,2187.7780570027294,2205.8085845324886,2200.137707059286,2195.218037411403,2190.2774482220416,2204.4623248063676,2199.464423537048,2196.9134764394717,31.588747231055496,0.07302218545425766,1.2441454010680193,-0.3395488519915079
112,1.1300000000000008,0.5882668634010328,-0.45047708899404215,3.309354743037149,0.4558719910966807,-0.44883314664330615,0.6054779088028196,0.4734195139192942,12.293393362369743,3.58873788461863,-0.5432973476584502,0.06293119563059137,0.6002901013092314,-0.35105768197012877,2.7848743479701454,31.383167057650763,-15.3608256125205,0.0,0.0,0.0,0.0,0.0,0.0,0.0,0.0,0.0,0.0,0.0,0.0,0.0,0.0,0.0,2162.5416517059493,2198.5229320708836,2199.4901934583563,2163.090184000106,2167.2204682237,2192.325885999845,2192.3977256091825,2168.65445287614,31.60863227017769,0.12786837282876415,1.3522636880000654,-0.333716728846696
113,1.1400000000000008,0.711336644901297,-0.41304716403706654,3.303154852273179,0.4546205590408932,-0.45148076502457296,0.606518861898445,0.4707654790568093,12.320380257360068,3.8958543655003517,-0.6967547759743467,0.06906311248693481,0.8699703502373972,-0.3502078449363649,2.661927795681862,30.43934906701784,-15.386036613357467,0.0,0.0,0.0,0.0,0.0,0.0,0.0,0.0,0.0,0.0,0.0,0.0,0.0,0.0,0.0,2121.4485957535876,2179.542882038446,2181.2758280427774,2123.565691012012,2128.5114188288953,2169.754379931305,2171.8859709549492,2130.250674788552,32.01087475647521,0.14586606106844519,1.3820681114259319,-0.33650424968436693
114,1.1500000000000008,0.834672985732807,-0.37256962666836624,3.295414136621898,0.45266663082764186,-0.45464198713581633,0.608134626086369,0.4675102794839274,12.346844442319759,4.1994409930915895,-0.8517676166197983,0.09733596106832537,1.070190777214272,-0.34886499664595233,2.63485464692792,30.303115492739785,-15.608273112540537,0.0,0.0,0.0,0.0,0.0,0.0,0.0,0.0,0.0,0.0,0.0,0.0,0.0,0.0,0.0,2125.7114957887484,2173.069095560119,2172.085964855151,2132.3220662967346,2131.0120323496217,2167.8311460933683,2168.6980410342317,2135.682037878917,32.38141044432617,0.03344017546596445,1.2921351195065314,-0.3426269867431781
115,1.1600000000000008,0.9582740529897953,-0.32905159670270684,3.2861090638899135,0.4502540427383749,-0.45811055250096777,0.6101682442425449,0.46378953459837574,12.373395018291488,4.5045057329799,-1.0098198427296599,0.12030262626824609,1.2002826774551436,-0.34761710314281646,2.6561619010685433,30.551797775358658,-15.9555675300731,0.0,0.0,0.0,0.0,0.0,0.0,0.0,0.0,0.0,0.0,0.0,0.0,0.0,0.0,0.0,2147.2993043519928,2178.215817498258,2177.1625443577777,2152.581714162779,2150.9789191948153,2175.9795811544527,2175.9125840187494,2155.0848389752296,31.966208504692858,-0.15948389795113183,1.532958456711022,-0.35010935941752613
116,1.1700000000000008,1.0821415916642718,-0.282470889389888,3.2752051703942993,0.44755080333413577,-0.461768039494185,0.612351301316709,0.4598852464608966,12.400123311607187,4.811945345885268,-1.171591075048292,0.08152448325115538,1.2381256524571234,-0.34690276361296246,2.6690334050876174,30.78281244181813,-16.340962647293676,0.0,0.0,0.0,0.0,0.0,0.0,0.0,0.0,0.0,0.0,0.0,0.0,0.0,0.0,0.0,2175.3026204727953,2176.576834560364,2184.2348881348944,2169.3467797753524,2174.1975033481494,2179.052655338249,2183.4542761546454,2171.3207619751934,31.32250554609983,-0.18468205544223434,2.047816511027182,-0.3497589900347988
117,1.1800000000000008,1.2062740160597611,-0.23282539601776323,3.2626677101476305,0.4444236760428663,-0.46574489921519724,0.6145093682729509,0.4560126328648692,12.426192649025865,5.116394036471463,-1.336378101728787,-0.02579504546744761,1.3631109252344369,-0.34698676022873837,2.564341273963322,30.284729299551394,-16.618179800822475,0.0,0.0,0.0,0.0,0.0,0.0,0.0,0.0,0.0,0.0,0.0,0.0,0.0,0.0,0.0,2160.256615855716,2167.5487165723453,2185.6480131533294,2140.8480516803043,2160.5839035786303,2165.9950414830623,2177.3971368056655,2147.9568123107824,31.093876025563613,-0.12281207822590898,2.066849579250639,-0.3443687734588414
118,1.1900000000000008,1.3306602250438258,-0.18016797567078638,3.2484693021928917,0.44043437878166314,-0.47036538498124214,0.6168876763418906,0.4519110060356588,12.450774484646084,5.413959445226704,-1.5038021468141376,-0.09292792961605419,1.6510022051302993,-0.34730247000186787,2.3911323863803347,29.525252860325146,-16.897766958511085,0.0,0.0,0.0,0.0,0.0,0.0,0.0,0.0,0.0,0.0,0.0,0.0,0.0,0.0,0.0,2118.2808962508916,2166.239134861501,2179.274195159011,2103.8861894460033,2125.6198733766073,2156.9561140973906,2167.5143499524265,2113.940368885895,31.12344460984637,-0.06754312177227792,2.134675233911724,-0.34916301692384094
119,1.2000000000000008,1.455284364063716,-0.12456237035149711,3.232579026666372,0.435590136758597,-0.4755767876483949,0.6196602148848168,0.4473356345045219,12.473805984433408,5.706533905276659,-1.6749769447299616,-0.10245216743460013,1.8227153057383119,-0.34731686166479697,2.2393497871799894,29.116110413959895,-17.322339483509808,0.0,0.0,0.0,0.0,0.0,0.0,0.0,0.0,0.0,0.0,0.0,0.0,0.0,0.0,0.0,2116.3074000167167,2150.497787218631,2154.7190500758693,2112.99930708464,2119.3545423016235,2146.6044808673964,2151.740465297764,2115.223514253301,31.61161308566726,-0.23734364242136266,1.7669900324944159,-0.3608292937131574
120,1.2100000000000009,1.5801319589746143,-0.06604438023602298,3.214953191174094,0.43026076081284464,-0.481068089409558,0.6227167008546177,0.4423495015633343,12.49549974048289,5.996771258105036,-1.8510763286600533,-0.08388681516833821,1.953790707141089,-0.34747086939365285,2.1115446180210995,28.941317191514493,-17.85141331822415,0.0,0.0,0.0,0.0,0.0,0.0,0.0,0.0,0.0,0.0,0.0,0.0,0.0,0.0,0.0,2119.6652604868564,2149.0587187954156,2147.2865772320242,2120.9022520484077,2123.3780234431592,2145.487479207667,2145.32224225733,2122.91886330751,31.139857447088122,-0.5528453774351586,1.743169406655701,-0.3821431285604101
121,1.2200000000000009,1.7051914186495527,-0.004620767417266984,3.1955361482383524,0.4247469222323265,-0.48662807693803856,0.6257232990122991,0.43732541643828254,12.51623459744684,6.288271216795071,-2.0334041016038618,-0.15243532082395503,1.8740250631480118,-0.34840031025852697,2.023547432447259,29.1814104046777,-18.50634573165877,0.0,0.0,0.0,0.0,0.0,0.0,0.0,0.0,0.0,0.0,0.0,0.0,0.0,0.0,0.0,2165.674970001655,2136.668126268862,2146.675679127872,2151.4418532196964,2159.2539680879086,2144.9389713066703,2149.671371648166,2150.0256570728616,30.359175621649346,-0.6113462733869441,2.2117986627029254,-0.3953556694261246
122,1.2300000000000009,1.8304506814784234,0.059705497272112856,3.1742700173393543,0.41912572340096854,-0.4922504991504282,0.6282382232964235,0.43282768957071405,12.535269361095333,6.576057603547299,-2.2205056561268663,-0.33128376096229006,1.8215107415417695,-0.3510643459396883,1.8115971486079019,28.579766024439124,-18.906394724466757,0.0,0.0,0.0,0.0,0.0,0.0,0.0,0.0,0.0,0.0,0.0,0.0,0.0,0.0,0.0,2160.1695524861357,2116.407863746423,2142.1956386630645,2123.2899124747914,2152.8268552806085,2122.4925145597235,2136.8886147031635,2127.139084339789,30.125539229058628,-0.5549231998316336,2.0181848465589036,-0.38935222799377356
123,1.2400000000000009,1.9558878557533461,0.12686988094219398,3.1511163333254473,0.4129332081630068,-0.49827122644096405,0.6304649592819205,0.4286325764741531,12.551701205500823,6.855430146074162,-2.4107666485925296,-0.45117983754172225,1.9878229858150924,-0.35509816917714154,1.5246489115057216,27.65053910545845,-19.19960558193079,0.0,0.0,0.0,0.0,0.0,0.0,0.0,0.0,0.0,0.0,0.0,0.0,0.0,0.0,0.0,2107.3329011988903,2118.6810864554723,2134.8969789674975,2075.5498918296967,2110.7800483418387,2112.561769722772,2123.9990319224676,2084.2083232839336,30.191175554130012,-0.45426367285690794,2.042735194071289,-0.395473877379522
124,1.2500000000000009,2.081475852013407,0.19679517764276774,3.12604082389569,0.40619289087861205,-0.5046333342432215,0.6326478691189872,0.4243927509624194,12.56546590649734,7.1289126774464675,-2.6051043989485763,-0.49286410582054396,1.997975962822025,-0.35893689509017973,1.2622996254325614,27.184356071640714,-19.65023611933736,0.0,0.0,0.0,0.0,0.0,0.0,0.0,0.0,0.0,0.0,0.0,0.0,0.0,0.0,0.0,2106.663180120747,2099.766805654061,2103.804342845902,2090.757635863774,2104.292001688285,2100.998716508305,2105.0458587763233,2088.8672222807863,30.83488078638287,-0.6691689904683484,1.2716792561373027,-0.41490679850622475
125,1.260000000000001,2.207189093389454,0.2694404453821686,3.098996762288351,0.3993601790043921,-0.5109929486590807,0.6347556330827268,0.4200987266298541,12.576787701226847,7.399825480916555,-2.804611843877027,-0.4716220951323527,2.018707571506942,-0.3626573702986129,1.0256089429283577,26.999233344300322,-20.19322979693694,0.0,0.0,0.0,0.0,0.0,0.0,0.0,0.0,0.0,0.0,0.0,0.0,0.0,0.0,0.0,2102.6944949630397,2107.562764205902,2099.8501085642883,2097.9040840785265,2104.5772790850965,2105.724992101099,2100.7375873532415,2097.3386730552907,30.362059841043887,-1.03883376716371,0.6294421885570753,-0.4540386300705357
126,1.270000000000001,2.33300495422793,0.34480017279395836,3.0699254301831522,0.3928580282740593,-0.5170796886925376,0.636443095928974,0.41621070481979394,12.586046283490116,7.672601792088506,-3.0107736749435476,-0.5607993033303905,1.7036869274155544,-0.36719651132664194,0.8280281869037509,27.338855500855352,-20.886292179954413,0.0,0.0,0.0,0.0,0.0,0.0,0.0,0.0,0.0,0.0,0.0,0.0,0.0,0.0,0.0,2168.8755454676966,2085.3665108130726,2092.2121624990737,2145.0850303399748,2154.397208518256,2102.84353306596,2102.8245382819464,2137.0202246229687,29.507368978084134,-1.2188598684595622,0.6126046245690877,-0.4843334147684828
127,1.280000000000001,2.458901122020946,0.4228779654582043,3.0387699374621304,0.38718001793713563,-0.5226293778814997,0.6369793287137187,0.41377228263480426,12.59270694081428,7.942100747577728,-3.220701187132643,-0.7751886082086804,1.2561954952907814,-0.3741849600206273,0.5374992663238487,26.770500541895004,-21.101937360779033,0.0,0.0,0.0,0.0,0.0,0.0,0.0,0.0,0.0,0.0,0.0,0.0,0.0,0.0,0.0,2183.108846841541,2046.5624713679258,2070.0770766733995,2132.126137400765,2162.7364764050535,2067.040144970768,2076.292328246935,2124.6695168793412,29.328080143480005,-1.4610650428383885,-0.06629510324259302,-0.47569735244348543
128,1.290000000000001,2.584848140353018,0.5036123792837858,3.0055117411569534,0.3821168966292577,-0.5278201536447727,0.6363149880330687,0.41291136908701037,12.596133293069238,8.203449166125427,-3.4308650079329266,-0.9703654767391748,0.9913989838226368,-0.3836534808891276,0.194322529196711,25.872391712601583,-21.027766525728797,0.0,0.0,0.0,0.0,0.0,0.0,0.0,0.0,0.0,0.0,0.0,0.0,0.0,0.0,0.0,2136.9916575520724,2040.1800319481142,2057.823950022553,2082.169598060058,2126.1893556513796,2048.2929815880057,2056.2188907880336,2081.033179231178,29.386048894136792,-1.5345321794743272,-0.40995260376763676,-0.48169386957512206
129,1.300000000000001,2.7108126917343176,0.5869323469956824,2.9701514273714116,0.37760251687842084,-0.5326979201615312,0.634507485043508,0.4135813300022421,12.59620885083227,8.460149885513754,-3.641257073981943,-1.1893742159652625,0.5473890086962446,-0.39239589502014954,-0.14689233351106168,25.5914568758957,-21.055113066225317,0.0,0.0,0.0,0.0,0.0,0.0,0.0,0.0,0.0,0.0,0.0,0.0,0.0,0.0,0.0,2147.807299704958,2010.0986008585267,2034.0528459206075,2093.5793555981286,2128.0396891269274,2030.1634296361647,2042.541635604188,2085.1532577022317,29.844519550157663,-1.9318397301211963,-1.8496206080512776,-0.5079269650756344
130,1.310000000000001,2.8367606597902784,0.6728140104371625,2.932685632291313,0.3739445346868325,-0.5370467017231625,0.6314575535189545,0.41594192292912424,12.592781904880535,8.716226039022828,-3.851862763348258,-1.3411675653632573,0.15093673987431822,-0.4003907072158271,-0.5070726290856697,25.61704012766519,-21.03975018249571,0.0,0.0,0.0,0.0,0.0,0.0,0.0,0.0,0.0,0.0,0.0,0.0,0.0,0.0,0.0,2139.97218777459,2021.4556261344549,2034.520418001329,2096.8416269627646,2126.960273108907,2035.077106460725,2041.8941603066883,2090.2305590718715,28.288541167641363,-1.9894622590446895,-4.077760843396289,-0.5493670244932691
131,1.320000000000001,2.9626560193985925,0.7612677397250553,2.8931139611095626,0.3716398674434905,-0.5405158037600041,0.6267856920295697,0.42055459940330575,12.585642359886263,8.975290370407011,-4.062336082367772,-1.6097063917265437,-0.6884132982400841,-0.40833790149460575,-0.8927912400427118,26.071470845757005,-20.971946648390194,0.0,0.0,0.0,0.0,0.0,0.0,0.0,0.0,0.0,0.0,0.0,0.0,0.0,0.0,0.0,2209.884793680644,1979.3607830718481,2007.8303385728113,2148.8807574727816,2176.7554195747534,2018.819111141726,2029.9665018193718,2130.1747936140423,26.38442232368776,-1.8845880194328022,-5.478098287967377,-0.5876472775580159
132,1.330000000000001,3.0884596363887287,0.8522844371562156,2.85146786713289,0.37227611775124864,-0.5419839415260664,0.61945933706371,0.428875307058493,12.574416618370593,9.22659385973599,-4.265178806071675,-1.778775318814032,-2.1104537321615378,-0.41791012870748945,-1.2982308648776808,24.911369469707623,-19.860454225132607,0.0,0.0,0.0,0.0,0.0,0.0,0.0,0.0,0.0,0.0,0.0,0.0,0.0,0.0,0.0,2217.0113383863686,1865.0456304215397,1871.4391535640925,2164.934036561379,2169.213592820892,1917.736216779726,1916.1720373238022,2122.8400018130465,25.29432184558653,-2.1254801098515714,-6.299599443227595,-0.5763336123408097
133,1.340000000000001,3.214132362883488,0.9457501407812706,2.807859573366297,0.3770019314256521,-0.5405000244105969,0.6090767811036347,0.4413102559808771,12.559593325430786,9.464653853889828,-4.453889331697762,-1.828351225425826,-3.513881168979356,-0.4285517989962546,-1.6242485383735072,23.51280586231752,-18.226234777942274,0.0,0.0,0.0,0.0,0.0,0.0,0.0,0.0,0.0,0.0,0.0,0.0,0.0,0.0,0.0,2145.6667010975093,1807.3018666460357,1780.7366552083968,2109.147917968243,2106.4632293889917,1846.6469864201292,1821.079783121036,2069.5374501147203,22.845545748110997,-2.011573432582075,-6.271726415576877,-0.5849828620252214
134,1.350000000000001,3.3396419997986686,1.041548798408999,2.762444244746779,0.3852665511443677,-0.5361648267133606,0.5957873150351788,0.4573121892186224,12.541881776790174,9.694257144889749,-4.626405218066497,-1.9726259209000654,-4.673881770882793,-0.43645297972921343,-1.8951857848428233,22.86900781493273,-16.526653884366027,0.0,0.0,0.0,0.0,0.0,0.0,0.0,0.0,0.0,0.0,0.0,0.0,0.0,0.0,0.0,2084.222770090526,1784.2288813717062,1775.840455286853,2038.2373619203797,2050.0745552707417,1819.4024270824702,1801.0631717272183,2012.8479191777374,20.15342955833213,-2.144626179708634,-7.294028952606802,-0.608512935787261
135,1.360000000000001,3.464963174273955,1.1395761995691658,2.7154023295464227,0.39579426846526267,-0.5295924489110178,0.5801553398437844,0.4757084367101573,12.522050373924113,9.908571833714587,-4.778477079999283,-1.994823452461349,-5.334122995370272,-0.4425996316836688,-2.072412729958728,20.992705905356956,-14.33675414632507,0.0,0.0,0.0,0.0,0.0,0.0,0.0,0.0,0.0,0.0,0.0,0.0,0.0,0.0,0.0,1931.1489822680871,1761.7396636749215,1730.512094482058,1901.31479861642,1915.2149881555656,1769.1943428714749,1739.5212696531719,1884.3468033445035,24.150959216825953,-2.6433863638664126,-9.470707430889801,-0.623695370514117
136,1.370000000000001,3.5900794627652584,1.2396400332213018,2.666949431711838,0.4079705625031542,-0.5209728191596683,0.5624739544513587,0.49575234985982497,12.501041705728177,10.10098619472307,-4.908587640176785,-2.0750141746527238,-6.158363739268706,-0.4485703279066231,-2.1590384817944397,18.689654981894677,-12.12846701664727,0.0,0.0,0.0,0.0,0.0,0.0,0.0,0.0,0.0,0.0,0.0,0.0,0.0,0.0,0.0,1849.080313397459,1624.516868777496,1594.445640968035,1807.765416218725,1814.8695337709937,1652.2402753251313,1616.3205528787691,1778.3612335363507,26.6099464701075,-3.243582800793611,-9.999999999949125,-0.6251405240637061
137,1.380000000000001,3.7149717436458682,1.3416867995288397,2.617276564188251,0.42230833215248914,-0.5094440665280681,0.5415023137840258,0.518553430073001,12.476663394979271,10.31423599421675,-5.023378694253616,-2.3467372949315473,-7.540137960646768,-0.4521704044556499,-2.6169939455868985,22.4589588416908,-10.661380948576493,0.0,0.0,0.0,0.0,0.0,0.0,0.0,0.0,0.0,0.0,0.0,0.0,0.0,0.0,0.0,2072.1743633746873,1683.2453662921346,1693.2389068662437,2001.2761202200772,2024.7178410277031,1761.5554311682117,1746.9703537723017,1970.932713614954,27.000553166996816,-3.5421529178343403,-9.999999999999341,-0.6020857289951873
138,1.390000000000001,3.839596546738506,1.4460287321860144,2.5665506821836837,0.43845252989758415,-0.49467911057552866,0.5161809464190567,0.544618386708105,12.447478004225996,10.558001883099527,-5.11763760361169,-2.763842675167763,-8.556695865196664,-0.45324972381117806,-3.12281555035554,25.0903591105871,-8.244296663706407,0.0,0.0,0.0,0.0,0.0,0.0,0.0,0.0,0.0,0.0,0.0,0.0,0.0,0.0,0.0,2134.6564290110236,1822.644293913902,1860.3549441079688,2038.5912222856487,2105.171673276975,1868.3199380996255,1876.605920930061,2033.3775198572548,28.726512158082944,-3.082641540479748,-9.999999999999263,-0.6323586382356229
139,1.400000000000001,3.963906586632143,1.5528763168567186,2.515018169947504,0.4548195563424353,-0.4775983422258502,0.48699421359355133,0.5726042530386836,12.413797716637266,10.8118841398132,-5.183856185625536,-3.1245638032487273,-9.153204853729495,-0.44942901098464927,-3.564433560850233,25.406210401824225,-5.257837874210303,0.0,0.0,0.0,0.0,0.0,0.0,0.0,0.0,0.0,0.0,0.0,0.0,0.0,0.0,0.0,2098.8201639598165,1899.358973467854,1929.6694612299134,2013.601176913208,2081.133337941871,1921.01822374531,1932.2274982992021,2013.0547565200118,29.80971556683794,-3.0961366325008814,-9.999999999998748,-0.657945515713899
140,1.410000000000001,4.0878528704076205,1.662303548524393,2.4629812709433416,0.47081349078094176,-0.458477449568286,0.4551408382580391,0.6008160304833696,12.374461786833898,11.075001845217106,-5.217897958991944,-3.1130577611741126,-9.502254544072827,-0.4450868081012839,-4.1793652569595,26.474769064998682,-1.8941582134521795,0.0,0.0,0.0,0.0,0.0,0.0,0.0,0.0,0.0,0.0,0.0,0.0,0.0,0.0,0.0,2100.941983949685,2027.785688028696,1984.301795611066,2074.36281627464,2102.714084865636,2032.785513728129,1998.2954104125247,2066.6311613148155,29.653980276436496,-3.8421811212570303,-10.0,-0.6602151577829887
141,1.420000000000001,4.211376367741219,1.7743923673636528,2.410776720991942,0.4862568716279941,-0.43737987343588847,0.4215505748427154,0.6281307299898158,12.329332279048813,11.342681014597353,-5.217154008684046,-3.1256487980092817,-9.704775612372273,-0.4430212364127264,-4.739030376708087,26.588406007570953,1.6316855219207227,0.0,0.0,0.0,0.0,0.0,0.0,0.0,0.0,0.0,0.0,0.0,0.0,0.0,0.0,0.0,2125.364798878402,2087.309144433351,2037.516482269269,2095.9197894150166,2123.9668871338026,2093.0926762665995,2042.8610363167766,2094.3672347758993,29.502426639381735,-4.171745330283707,-10.0,-0.6645455403153435
142,1.430000000000001,4.334425228116583,1.8891214665336034,2.358748713126397,0.50038150077252,-0.41507959335834044,0.3859296148236768,0.6545117395923191,12.279737085580917,11.600711378736388,-5.183094361172725,-3.471929842246384,-9.821939609101822,-0.4405549166738549,-5.155277281140513,25.135324998295516,4.845723244469191,0.0,0.0,0.0,0.0,0.0,0.0,0.0,0.0,0.0,0.0,0.0,0.0,0.0,0.0,0.0,2141.0841523738613,2065.2977120869004,2071.4567005045374,2054.4397652333882,2127.114047380307,2079.8039965118123,2060.8257989693598,2064.83691195611,30.918039217932737,-4.075148360270256,-9.999999999999757,-0.6317963910404153
143,1.440000000000001,4.456956495725889,2.0063496673986707,2.3072180604014436,0.5125969572490012,-0.39221080627137056,0.3479204576529789,0.679975292205216,12.225741435618104,11.841800967681976,-5.118038495158036,-3.798337369840685,-9.889502647594464,-0.4361792349384472,-5.61469808198467,23.259074378247035,7.848414826360006,0.0,0.0,0.0,0.0,0.0,0.0,0.0,0.0,0.0,0.0,0.0,0.0,0.0,0.0,0.0,2132.983892956863,2064.831535018833,2072.1532216305677,2041.7746015197968,2123.4672896057286,2074.448619477091,2064.362308333276,2048.8984663744354,32.840328048111914,-3.3412478185643426,-9.999999999999998,-0.6569543512264391
144,1.450000000000001,4.578916358989007,2.1259246631052497,2.256504103986474,0.5229824343553507,-0.3686543048211147,0.30802270208629534,0.7040634856971842,12.164998823116216,12.071264276354015,-5.0189800760256,-3.933406486906213,-9.928606812357588,-0.4286520855656407,-6.37747144054579,22.258400730130745,11.37693315568189,0.0,0.0,0.0,0.0,0.0,0.0,0.0,0.0,0.0,0.0,0.0,0.0,0.0,0.0,0.0,2157.542566149895,2128.7119970327126,2107.982641694508,2104.8566168352836,2158.0763900487746,2133.015642166796,2109.7546764131125,2107.765436361069,34.848517332665054,-3.2739012105812395,-9.59799716508087,-0.689138602831621
145,1.460000000000001,4.700226884376529,2.24774697349195,2.2069664362763537,0.5320066248575768,-0.34376752414842016,0.2674074732043707,0.726144671345159,12.09574598639695,12.291109622789737,-4.882399855224446,-3.6768508632266057,-9.951847707807772,-0.42275811891196047,-7.237754289405984,21.211030062680436,15.178461236186713,0.0,0.0,0.0,0.0,0.0,0.0,0.0,0.0,0.0,0.0,0.0,0.0,0.0,0.0,0.0,2189.3599671854595,2229.185184307649,2138.881068871552,2197.691711892487,2203.0827275894017,2222.732643547236,2153.294521370024,2189.8381604867027,36.37524265917337,-3.760891289730626,-9.999999999999996,-0.6936582143679818
146,1.470000000000001,4.820802272608843,2.371707032119688,2.1589878011437476,0.5398255213132976,-0.3175606270275493,0.22700424900005844,0.745796705300188,12.018063789648298,12.498101058083286,-4.707212361677099,-3.5187290464902854,-9.796259579842758,-0.4215466948123075,-8.05198539704044,19.742382449988938,18.996169465070878,0.0,0.0,0.0,0.0,0.0,0.0,0.0,0.0,0.0,0.0,0.0,0.0,0.0,0.0,0.0,2244.9353465083227,2310.052688686297,2227.097409321624,2237.132237055971,2257.8112718649927,2304.442478449406,2227.375073535626,2243.3231421315136,36.63347543354456,-3.991736474732368,-9.999999999999158,-0.7036494630084491
147,1.480000000000001,4.940563741519662,2.4976439971070334,2.112941725859534,0.5461350851454803,-0.2906192558702689,0.18616678380200288,0.763294730428141,11.933163349284888,12.685262042162194,-4.4966088905182495,-3.650178739618381,-9.878363942097337,-0.42164002824564417,-8.733540539719087,17.479404803815157,22.364886721061517,0.0,0.0,0.0,0.0,0.0,0.0,0.0,0.0,0.0,0.0,0.0,0.0,0.0,0.0,0.0,2341.43690547246,2313.3128866518305,2276.7352776007024,2287.04997777065,2333.296255259106,2326.841497439056,2277.999014954139,2290.837325115198,36.66278201895483,-3.8454330886008488,-9.999999999999574,-0.6633953844414975
148,1.490000000000001,5.059450450880843,2.625308872477931,2.0691400362884655,0.550770694145122,-0.2630306977684535,0.144023281507546,0.7789247645865031,11.843562083052591,12.841990705879837,-4.2601977284566255,-3.8178031321764623,-9.920323036630037,-0.42148166190762104,-9.116048167175705,14.091254118621777,24.539750249688908,0.0,0.0,0.0,0.0,0.0,0.0,0.0,0.0,0.0,0.0,0.0,0.0,0.0,0.0,0.0,2354.095310873116,2322.663064287882,2293.961059666548,2288.7250450263923,2349.6150528440967,2328.3472292257384,2290.538497806593,2293.1202556597505,35.282597444783605,-3.6581178321760697,-8.906495010773012,-0.6674292058057737
149,1.500000000000001,5.177424639936742,2.75436253074883,2.0277968593779665,0.5537354955313859,-0.23483931532919106,0.10099407169116001,0.7924819836738044,11.750835419495969,12.962488355047038,-4.005920296123913,-3.8420110923655835,-9.946983254099443,-0.41844480727418526,-9.385459551005226,10.351443652437453,26.0771246643845,0.0,0.0,0.0,0.0,0.0,0.0,0.0,0.0,0.0,0.0,0.0,0.0,0.0,0.0,0.0,2339.834591801244,2333.8047834032955,2289.543287577663,2301.9916266296036,2340.2638470973257,2333.355538565795,2290.9560962603896,2300.9027419273652,22.715258995798347,-3.387238953641696,-7.63559278625112,-0.7014095833375695
150,1.5100000000000011,5.294470044838635,2.8844171534074334,1.9890292972488324,0.5550737183542226,-0.2067226297546768,0.05834044466910173,0.8035890206165958,11.658430717803933,13.041566522015819,-3.7476038511537033,-3.773706831567293,-9.49905239213016,-0.4153628202807802,-9.229782304529976,6.131352240503318,25.939749638174803,0.0,0.0,0.0,0.0,0.0,0.0,0.0,0.0,0.0,0.0,0.0,0.0,0.0,0.0,0.0,2243.3571607268295,2346.6109058969905,2285.9897036971965,2219.449437338435,2261.0191322343467,2326.117688847398,2270.0597967022304,2231.54487645996,10.661191636606567,-3.567696046980614,-7.50048903071681,-0.7070519807308586
151,1.5200000000000011,5.410687300818607,3.0149697675600433,1.952530725994891,0.5549177388025217,-0.1803117602213408,0.017792923491028147,0.8119343471992182,11.589437602942137,13.05972991917354,-3.5672322040958875,-3.6111238015398865,-8.699600204270448,-0.416894569353373,-6.107590686427855,-0.1500250206465381,15.296927978210917,0.0,0.0,0.0,0.0,0.0,0.0,0.0,0.0,0.0,0.0,0.0,0.0,0.0,0.0,0.0,1759.2899381977002,1982.0557549619898,1887.4691845733792,1738.8074882437304,1771.1537222283393,1932.0680611603652,1844.9923159454286,1739.1519241807093,11.100705712390143,-4.046271162460927,-8.07577956096708,-0.7032713216087646
152,1.5300000000000011,5.526376527071751,3.1454473607781614,1.9172751093300358,0.5535380101271795,-0.1559716965180772,-0.020640345850849822,0.8178279020386089,11.552919095546875,13.030351749042325,-3.4998932692059297,-3.613769176010573,-8.194604281143453,-0.42268022211626016,-2.849887320099498,-4.028916542587524,3.8267689330009347,0.0,0.0,0.0,0.0,0.0,0.0,0.0,0.0,0.0,0.0,0.0,0.0,0.0,0.0,0.0,1222.269606883845,1412.480741823261,1311.067900460089,1150.1594554729795,1206.7387540952354,1373.0253666218578,1267.3165465862276,1137.5523759174216,10.883669171982653,-3.9586868067333705,-7.8540786672743605,-0.6636581385443205
153,1.5400000000000011,5.641764110043982,3.2755299734598387,1.8824557219635125,0.5509863486460594,-0.13274164767129304,-0.058692620765750526,0.8217961273009513,11.524483693127934,12.98460026097997,-3.4644508153250113,-3.825658838993834,-8.141135342191085,-0.4265072512963014,-2.878064107049383,-4.994737199417898,3.4195732151887093,0.0,0.0,0.0,0.0,0.0,0.0,0.0,0.0,0.0,0.0,0.0,0.0,0.0,0.0,0.0,1330.6045549110104,1300.2223703536617,1260.6652853942128,1202.0690481555587,1311.4119053172963,1320.685450293484,1255.1881270871108,1208.029900573719,8.855668732385015,-3.649835616958411,-7.621772849349223,-0.6482585644733438
154,1.5500000000000012,5.756865057187848,3.405109086973103,1.847970094574574,0.5472599623016376,-0.10995242308035048,-0.09702345704739927,0.824016654627163,11.495633717523422,12.929795445286478,-3.433538563422025,-3.8926483658349045,-8.00990932050574,-0.4275156129001295,-2.91237705914682,-5.858936206816878,2.87755156668279,0.0,0.0,0.0,0.0,0.0,0.0,0.0,0.0,0.0,0.0,0.0,0.0,0.0,0.0,0.0,1285.8483108427893,1311.2400493428938,1250.0993560137013,1200.6235919439603,1291.4663182290005,1304.1767643067697,1241.742707960493,1208.757494459141,7.76101622885879,-3.7352347570333833,-7.413734042625953,-0.6681242963069604
155,1.5600000000000012,5.871690379060922,3.5341034969671377,1.8137163837436017,0.5425309640775303,-0.08751967640445975,-0.1346741664241582,0.8245382514820778,11.4700700817381,12.86823712617474,-3.4205121459033228,-3.792049894085524,-7.839924932467229,-0.42684525493965597,-2.452884575188108,-6.385282837173989,0.6379269408425259,0.0,0.0,0.0,0.0,0.0,0.0,0.0,0.0,0.0,0.0,0.0,0.0,0.0,0.0,0.0,1130.7050478691424,1229.3696186770562,1115.2071317929297,1097.2474455972508,1141.9496129646182,1208.147607669889,1107.7697025013856,1092.5554334763183,8.755492763867029,-4.1854835041986265,-7.710348688600917,-0.6737414065689094
156,1.5700000000000012,5.986276298145725,3.6624620352841313,1.7795035401135735,0.5369194142305417,-0.06550004862363917,-0.17134463274205441,0.8234490288312467,11.44740884523686,12.803009782626752,-3.4242522358885035,-3.78368454312134,-7.6543613248480975,-0.4280698007840744,-2.228008363443834,-6.657995468962952,-0.8347434801283526,0.0,0.0,0.0,0.0,0.0,0.0,0.0,0.0,0.0,0.0,0.0,0.0,0.0,0.0,0.0,1066.3537766857512,1156.023743256305,1049.9919303535205,999.5743130128736,1071.836627254024,1144.12208614583,1035.2400468505477,1007.0111911265573,11.59350501852795,-4.441146472172409,-8.05721355940105,-0.6941872411092822
157,1.5800000000000012,6.100629629509473,3.790146373918527,1.7452338301265522,0.5303671399777763,-0.043971217373936625,-0.20783793419547053,0.8207195757284016,11.422645094092761,12.732871908636323,-3.429139819510234,-3.9803190264089,-7.672163106576536,-0.4291986686658534,-2.6118422067469282,-7.255651860445411,-0.4437313581235891,0.0,0.0,0.0,0.0,0.0,0.0,0.0,0.0,0.0,0.0,0.0,0.0,0.0,0.0,0.0,1199.1113857196149,1139.1301332139915,1102.0927253683024,1069.9887056626949,1183.7686878462407,1162.351345579221,1097.0750680772835,1081.6240286298375,14.881686788246853,-4.155437666997848,-7.86191461930325,-0.6495562549046444
158,1.5900000000000012,6.214699900299811,3.9170795172367168,1.7109813132646379,0.5226816876138677,-0.0225597643871171,-0.24504107275068604,0.8162412530184382,11.389947486655025,12.651553722738567,-3.418543899102059,-4.19741590830276,-7.823776165091514,-0.43064399638816153,-3.5685824656628284,-8.631713797724316,1.5132062973983729,0.0,0.0,0.0,0.0,0.0,0.0,0.0,0.0,0.0,0.0,0.0,0.0,0.0,0.0,0.0,1387.8360310850148,1275.1457090337235,1247.2816540834533,1261.1547865320865,1377.3658100568607,1304.112538096209,1255.8467956313286,1269.7850194809707,30.090844527209825,-4.3296400081904025,-8.1456750867987,-0.6113550863733458
159,1.6000000000000012,6.328390334414163,4.043114698310071,1.6769412520221696,0.5138499691883149,-0.0010219673786419075,-0.2824475041143814,0.8100497343789462,11.346428150830521,12.552311064617964,-3.386354639604629,-4.187016716218441,-7.831177768208875,-0.4290792770689153,-4.697521686072292,-10.63379261731967,3.705826491918973,0.0,0.0,0.0,0.0,0.0,0.0,0.0,0.0,0.0,0.0,0.0,0.0,0.0,0.0,0.0,1495.122162093798,1496.7438314288054,1427.000389756679,1447.765001580024,1510.6310770478049,1498.244201465067,1437.9666321520735,1455.3035794609748,41.17293866286165,-4.490411932753218,-8.060018026241432,-0.6155654314651221
160,1.6100000000000012,6.441500631274122,4.1678963926948285,1.6435763298729427,0.503906914368407,0.020668177465356815,-0.3195318392159268,0.8022157140191524,11.268974267313864,12.390745526179733,-3.2704549465759354,-4.265751347463056,-7.953661813983643,-0.42445727562356134,-9.03265445168877,-18.977701929394186,14.46739741800318,0.0,0.0,0.0,0.0,0.0,0.0,0.0,0.0,0.0,0.0,0.0,0.0,0.0,0.0,0.0,2105.078368348105,2065.9649403570406,2035.8680046298691,2064.717582973172,2126.4255872401905,2104.9522641860235,2069.278970309139,2093.3436627930514,42.934163866022,-4.402995622030206,-7.653517286365125,-0.6075151678536566
161,1.6200000000000012,6.55364334010993,4.290637362678676,1.6118176564812747,0.4927875314318709,0.04241698187807275,-0.3565795618837767,0.7925984257872406,11.154616786865184,12.144096392027059,-3.071523928410065,-4.378591426540513,-7.9899849349048875,-0.4183040233074649,-12.373081078859371,-27.55037338679145,21.40552890836389,0.0,0.0,0.0,0.0,0.0,0.0,0.0,0.0,0.0,0.0,0.0,0.0,0.0,0.0,0.0,2462.4078870283524,2440.7005500353075,2420.3752461481777,2420.7591884799267,2478.3785753222296,2462.1404509489853,2435.7351377153122,2442.7771109995356,43.98884065395653,-4.147811799216121,-7.1191842471476106,-0.45990526737010917
162,1.6300000000000012,6.664550405437056,4.410609894349387,1.5821791888393069,0.480742932038293,0.06367502393881988,-0.39303364401098717,0.7812530187442867,11.025825140315472,11.8441890249585,-2.8578318784025076,-4.399420612102099,-7.840737595281618,-0.4119103088864958,-13.060828343640196,-31.490959761615755,20.701504652414826,0.0,0.0,0.0,0.0,0.0,0.0,0.0,0.0,0.0,0.0,0.0,0.0,0.0,0.0,0.0,2505.4374062540087,2531.007070414962,2498.9499739204166,2477.656123148858,2514.834103930711,2528.7118853720995,2497.243031300566,2486.073961265271,43.659879142016834,-3.455353088190978,-6.462561131652801,-0.306263640891855
163,1.6400000000000012,6.774146603873286,4.52740955257311,1.5546082943351422,0.46814002123567205,0.08397901856231377,-0.42797998095777884,0.7685216853532205,10.892990730922033,11.510772806718977,-2.6596676731427276,-4.296179181017624,-7.531333595956514,-0.3978027147571248,-13.357613212164665,-34.57473139546963,18.820693027656432,0.0,0.0,0.0,0.0,0.0,0.0,0.0,0.0,0.0,0.0,0.0,0.0,0.0,0.0,0.0,2503.970671298957,2576.5033483308603,2547.1348287326437,2514.4831797281945,2517.5646939333596,2566.1648978481608,2543.820219459198,2521.638313835903,43.631215145164234,-2.9768483970862794,-5.720964733236732,-0.15804047153195883
164,1.6500000000000012,6.8824116385432585,4.64075400895436,1.5288967789019408,0.4553119782353906,0.10316363509569423,-0.460322515505988,0.7550837361428578,10.760244611991652,11.155073529105763,-2.4872706211831614,-3.924440587415689,-7.077075710772565,-0.3737689664184861,-13.215563145740461,-36.39474872530535,16.01289646211912,0.0,0.0,0.0,0.0,0.0,0.0,0.0,0.0,0.0,0.0,0.0,0.0,0.0,0.0,0.0,2453.3154155677635,2590.2217233297206,2544.573448648086,2522.446599464833,2475.43269310414,2568.699347348853,2542.9340606458672,2523.475725405615,42.98720018978119,-2.60606642168203,-4.926072993381763,-0.09793385320297966
165,1.6600000000000013,6.989356372752633,4.750452539404362,1.5047742380660296,0.4426191517242691,0.12107536161614724,-0.48925131681384515,0.7416617775862029,10.628980569105849,10.781899424958162,-2.341506307944002,-3.51081944634237,-6.504056910236961,-0.341901210574928,-13.04814241304797,-38.03903512620188,13.435339861849194,0.0,0.0,0.0,0.0,0.0,0.0,0.0,0.0,0.0,0.0,0.0,0.0,0.0,0.0,0.0,2426.70884397121,2595.1987991312803,2559.4105087461257,2523.459396300529,2451.0883862938326,2572.7586910676314,2554.6655616379035,2527.9256048809825,42.892479798135284,-2.4436608988515234,-4.8381778342787936,-0.05768058385248955
166,1.6700000000000013,7.095002100627164,4.856357211849821,1.481975772152992,0.4304742065093592,0.1373403372926419,-0.5146479953978077,0.7286748452605586,10.500728445556586,10.397554129151766,-2.222529300376158,-3.114813970527319,-5.839256182345807,-0.30832401119034153,-12.69050025853602,-38.87832226164356,10.774813954697926,0.0,0.0,0.0,0.0,0.0,0.0,0.0,0.0,0.0,0.0,0.0,0.0,0.0,0.0,0.0,2398.315009348651,2582.2467280976375,2554.347942067641,2497.5354979079566,2423.006331546145,2558.696137116583,2545.557074056459,2503.7700090727762,42.81333924889802,-2.3223443434710718,-4.584756985090685,-0.03823582894109426
167,1.6800000000000013,7.199380037583369,4.958370070732127,1.4602450125925681,0.418907985967775,0.15210159449756144,-0.537055407954389,0.7162071579024232,10.375293587878332,10.003366543079009,-2.127337973182687,-2.823902581134621,-5.420303323290864,-0.27615654404574974,-12.427095081477546,-39.86476126641669,8.529535337419958,0.0,0.0,0.0,0.0,0.0,0.0,0.0,0.0,0.0,0.0,0.0,0.0,0.0,0.0,0.0,2424.9981523229976,2549.3716914230376,2537.537929250286,2509.021709300558,2437.588231820783,2538.141451947485,2535.4106260006038,2509.7513239387986,41.66493578735067,-2.0998553960607707,-2.7363379424470486,-0.030524835817164055
168,1.6900000000000013,7.302517167979166,5.05639454435806,1.4393568640851162,0.40766419671781023,0.16580693038809322,-0.5572830972266672,0.7040976594870584,10.252604957809744,9.600145445322362,-2.0537892317255517,-2.6062159654367543,-5.066875592570072,-0.24616260608810273,-12.142284657040037,-40.69411658116984,6.420544256092953,0.0,0.0,0.0,0.0,0.0,0.0,0.0,0.0,0.0,0.0,0.0,0.0,0.0,0.0,0.0,2436.3912741308195,2535.4051388158555,2533.7994455269873,2506.4685684345127,2448.048098559715,2525.1227830894863,2529.949825860739,2508.98268273767,40.785411621360744,-1.6663220783898978,-1.1066310285187508,-0.023154465611952058
169,1.7000000000000013,7.404448381791748,5.15037816395299,1.4190919142638079,0.39764729179372293,0.1774547300216405,-0.5750009698673395,0.692647337953221,10.134319010635576,9.19686001366725,-2.0027420055382024,-2.3827631942618814,-4.080954678689335,-0.21935676399999537,-11.683102359256736,-40.360292574110446,4.211321160619619,0.0,0.0,0.0,0.0,0.0,0.0,0.0,0.0,0.0,0.0,0.0,0.0,0.0,0.0,0.0,2343.9352170633033,2561.00415826074,2557.3536634454445,2413.0012345721143,2378.9633522807267,2527.5774428866603,2531.862433488245,2435.991953871844,40.64513415399778,-1.2281800337018498,-0.3513695749010829,-0.0039044350339738493
170,1.7100000000000013,7.505215218095546,5.2403446761057575,1.3992370405246097,0.3903356004671161,0.18555688150836078,-0.5892369418064223,0.6826467528257079,10.019405946561395,8.796892723838026,-1.9710099028987222,-2.0619877126075554,-2.835598029171194,-0.19651902406296667,-11.427283803730148,-39.96030542963247,2.477840168619627,0.0,0.0,0.0,0.0,0.0,0.0,0.0,0.0,0.0,0.0,0.0,0.0,0.0,0.0,0.0,2282.3186963734165,2568.1971992881085,2549.587478678781,2364.2780990528945,2323.8945147890104,2530.3086483327133,2525.2283080466386,2387.019180221599,40.096912727585604,-0.9033780132337097,1.045218178095527,0.004014737164814382
171,1.7200000000000013,7.604838168514152,5.326315334712978,1.3796266141483178,0.3859099428028001,0.19026673761639298,-0.5998599477280869,0.6745666221467018,9.90510959895708,8.397093573372825,-1.952945406503852,-1.69013550369558,-1.798840371296483,-0.1768604651042412,-11.45973364603492,-40.02750706952085,1.3281956903596903,0.0,0.0,0.0,0.0,0.0,0.0,0.0,0.0,0.0,0.0,0.0,0.0,0.0,0.0,0.0,2293.6070754169423,2549.035843110093,2521.8439894187786,2383.080013710038,2325.7223589398905,2520.593521915264,2508.968797918534,2395.445862901321,37.862162592808225,-0.11683894281414142,1.3976822926157755,-0.34698407289702204
172,1.7300000000000013,7.703316732473696,5.408298387677506,1.3601443090724015,0.3843346040066037,0.19186217105366704,-0.6070481124470549,0.6685569599189948,9.7904285496455,8.000126419683038,-1.9448413393699593,-1.3400585258474613,-0.6041657772236341,-0.1595389302459525,-11.537769963201328,-39.58254531219474,0.4906388746730439,0.0,0.0,0.0,0.0,0.0,0.0,0.0,0.0,0.0,0.0,0.0,0.0,0.0,0.0,0.0,2264.1484274122395,2545.9900300221284,2520.314485054864,2350.0186693265878,2303.0936645795377,2511.0003285704825,2498.460926640376,2371.2524799640014,39.685894109925066,-0.33922134549370797,2.014591069112796,0.011652464519098849
173,1.7400000000000013,7.8006521415937895,5.486381336475984,1.3407005495482553,0.3853893856372757,0.19085974727443603,-0.6107308123145295,0.6648725089805538,9.67686722924342,7.619562082172061,-1.9450033596495184,-0.7870604431389768,0.22854448386265502,-0.16609891959525508,-11.35285697481514,-37.46663624494673,-0.23981079843804487,0.0,0.0,0.0,0.0,0.0,0.0,0.0,0.0,0.0,0.0,0.0,0.0,0.0,0.0,0.0,2244.032607545926,2491.200807483865,2383.4494419338926,2302.8161135522364,2273.063687049194,2461.1967302218136,2377.5349174590756,2299.8275054337196,40.55923650527361,-0.04655724730519961,2.173179122866519,0.09092570203177092
174,1.7500000000000013,7.89683767132592,5.560662389384902,1.3212450507087556,0.3884744766228535,0.1879976902775924,-0.6116334405332616,0.6630603169277556,9.559173825291998,7.234634798320353,-1.9456988444378682,-0.5975668416168498,0.9774209155811803,-0.16034234063260705,-12.020539970215793,-38.837759431711305,0.015635740633568318,0.0,0.0,0.0,0.0,0.0,0.0,0.0,0.0,0.0,0.0,0.0,0.0,0.0,0.0,0.0,2304.362090096286,2481.610616004089,2473.7036332820194,2365.3655005958517,2323.951880497236,2466.1612209578902,2462.487941981927,2384.812262592799,41.345371305332684,0.0721222239864887,2.36214868734574,0.08173220688604078
175,1.7600000000000013,7.991814784846617,5.631045636508337,1.3017963325761792,0.39321115892275404,0.1834279462404428,-0.610607690495354,0.6624933368303171,9.43527226290582,6.841168623760273,-1.9434718638885553,-0.34667498447214773,1.4758773980066262,-0.14124468163382808,-12.630264042854833,-39.46366027864112,0.3692058076893989,0.0,0.0,0.0,0.0,0.0,0.0,0.0,0.0,0.0,0.0,0.0,0.0,0.0,0.0,0.0,2349.4317359466095,2481.2228538180084,2482.5141629255295,2424.4463689577756,2365.6618378994262,2468.773875992893,2480.834589063686,2428.8747552514255,42.109066992339834,0.2088197544406472,2.372292375946187,0.0677636610463799
176,1.7700000000000014,8.085522274608774,5.697467913106471,1.2823907118669247,0.39896816912761657,0.1777930765790283,-0.6080008131328039,0.6629849418903652,9.305218283918384,6.442725326351639,-1.9368066766983518,-0.16082596921767855,1.8471223308753781,-0.12165509903761998,-13.255824646696723,-39.89951856070828,0.8858549939259053,0.0,0.0,0.0,0.0,0.0,0.0,0.0,0.0,0.0,0.0,0.0,0.0,0.0,0.0,0.0,2392.4032313811495,2490.695897058107,2495.396594518458,2455.033099653529,2404.8857681093427,2481.991762671419,2492.7871949898486,2459.2000072986243,43.111371805431936,0.3077006869810078,2.2201268091490727,0.0504172830549255
177,1.7800000000000014,8.17789737975106,5.759886037133187,1.2630804913689544,0.40536604006147503,0.17146461028261417,-0.6041934827648117,0.6642503265863234,9.168762851004145,6.040473853927061,-1.9241613904756556,0.004872105404771258,2.0661050547198796,-0.10458096519981452,-13.90252652938706,-40.24847305989354,1.5429917242917313,0.0,0.0,0.0,0.0,0.0,0.0,0.0,0.0,0.0,0.0,0.0,0.0,0.0,0.0,0.0,2434.3995128868555,2499.888330728711,2503.426402164546,2487.289387061634,2442.6423782549546,2495.004826519493,2504.1698200256524,2487.990204674201,43.91799551371706,0.3816394525939051,1.96906753220709,-0.017908023083481467
178,1.7900000000000014,8.268873650844707,5.8182591505940335,1.243933285554857,0.41196190021717005,0.16491154326281957,-0.5995564977368882,0.666050735071744,9.02536452537532,5.633486555041081,-1.9039630932503144,0.14018205570613196,2.1299926969465637,-0.09024797771380351,-14.610247797307352,-40.76174248178788,2.3531294347853837,0.0,0.0,0.0,0.0,0.0,0.0,0.0,0.0,0.0,0.0,0.0,0.0,0.0,0.0,0.0,2483.228134398003,2514.8806854454383,2517.6265948581904,2525.880959034652,2487.3684335819894,2514.4956790322244,2521.5956620296306,2524.1179283357587,44.60485221957742,0.32262978508406165,1.7947490603319027,-0.04416654848864347
179,1.8000000000000014,8.35838210289215,5.872542040400189,1.2250290074032257,0.4183583581669543,0.15857013496021677,-0.5944691376764403,0.668160340637469,8.875312411977921,5.222709779752798,-1.8755384725359643,0.24813455073904978,2.06235605072978,-0.08162117398832687,-15.247957445744476,-41.08713175943102,3.186033168415703,0.0,0.0,0.0,0.0,0.0,0.0,0.0,0.0,0.0,0.0,0.0,0.0,0.0,0.0,0.0,2527.1568470798334,2530.3687910409926,2525.3624718133997,2553.4797687130467,2527.8200675105422,2532.990507889601,2531.0801206374294,2549.364175533482,44.85556606986056,0.19943837298603617,1.6545939165292722,-0.11634415288025672
180,1.8100000000000014,8.446359797490418,5.922704485288028,1.206450397783267,0.42435473156419373,0.15265155637676192,-0.5892860763414052,0.6703450487360858,8.71932306630697,4.809578885704473,-1.838851159447982,0.2801144182182726,1.9507807075096952,-0.07709413181788413,-15.816256820583519,-41.28862548824497,4.006250353484564,0.0,0.0,0.0,0.0,0.0,0.0,0.0,0.0,0.0,0.0,0.0,0.0,0.0,0.0,0.0,2558.9818121724475,2543.654756599825,2544.0097351053164,2569.499033260099,2557.247785998195,2547.8486972724927,2547.733798418275,2567.422654265774,44.89251417884089,0.3318140785744977,1.4165482778386944,-0.18275881503360558
181,1.8200000000000014,8.532753211826805,5.968736806763278,1.1882763775231533,0.42995409574280585,0.14710434028193145,-0.5843130974978064,0.672367453641774,8.558676110572037,4.397248440782072,-1.7948219061179986,0.2432980338599776,1.8269489174152205,-0.07814755467648207,-16.238349535203866,-41.104857557373364,4.696485908791459,0.0,0.0,0.0,0.0,0.0,0.0,0.0,0.0,0.0,0.0,0.0,0.0,0.0,0.0,0.0,2578.1749146307075,2550.773288091407,2550.521769769114,2567.8080296999874,2574.583272414352,2555.6864458382847,2552.072707788307,2566.582838206447,44.76041427011693,0.6964760591143553,1.4561987634691091,-0.18903864189353234
182,1.8300000000000014,8.617521492242185,6.010660922757168,1.1705745712874913,0.4351003413672798,0.14205395841208077,-0.5796032398962074,0.6742169162393916,8.39445635245582,3.988211625420953,-1.7445657762415745,0.2861355281534651,1.654698405205426,-0.08514024136972072,-16.55762961427243,-40.727831094327094,5.28448126299641,0.0,0.0,0.0,0.0,0.0,0.0,0.0,0.0,0.0,0.0,0.0,0.0,0.0,0.0,0.0,2583.510093716953,2557.5346975683215,2537.920188937131,2573.689020446372,2580.933707044818,2560.479004206645,2543.724947505651,2567.9286841324897,44.44159200254578,0.6618165897196351,1.0921628659494087,-0.15311603352091635
183,1.8400000000000014,8.700634447923191,6.0485176981000235,1.1534027597252348,0.43978222114513943,0.13770868184668328,-0.5747412660100532,0.6762398938644909,8.227813366181273,3.5839743872221552,-1.6889053277100732,0.4734586871989499,1.5727885055701785,-0.09362890214332333,-16.75016174599797,-40.21361982252447,5.813337925323792,0.0,0.0,0.0,0.0,0.0,0.0,0.0,0.0,0.0,0.0,0.0,0.0,0.0,0.0,0.0,2561.890299617921,2572.2989723639384,2531.866421774158,2572.4844423697814,2565.9485214310052,2567.64420515476,2537.9370066092624,2566.459799308302,44.233046605556915,0.5996494704880164,0.7448131408514809,-0.12323073771472827
184,1.8500000000000014,8.782074768504154,6.082362354918175,1.136812649529074,0.44397099512452004,0.13414279266632514,-0.5696709604351011,0.6785060526633291,8.060156593164793,3.1859906842016517,-1.6283168145200042,0.5540193577909408,1.369480195596282,-0.09935837276403758,-16.798346806243813,-39.555679668679566,6.283528011610695,0.0,0.0,0.0,0.0,0.0,0.0,0.0,0.0,0.0,0.0,0.0,0.0,0.0,0.0,0.0,2566.5959923242644,2543.720931322943,2521.7173375509083,2570.9716478626433,2561.129390776368,2547.8704022085253,2528.203646992049,2564.222110500499,44.06904283804575,0.5419123605961319,0.4132755370145235,-0.10791599268860537
185,1.8600000000000014,8.861836748412406,6.112256843619186,1.1208517652723275,0.4474477417812961,0.13148729461750205,-0.564920537890717,0.6807102141133567,7.892225426944582,2.793742197642586,-1.5631162168734476,0.5738030789867437,1.1081292243537961,-0.10187574084396535,-16.801116957926965,-39.02578523164512,6.724471681544886,0.0,0.0,0.0,0.0,0.0,0.0,0.0,0.0,0.0,0.0,0.0,0.0,0.0,0.0,0.0,2568.5915027653,2524.2104886007387,2517.4786731627523,2568.066550802334,2561.5087268910943,2530.481029217149,2523.55044405606,2561.838461670412,43.923916838800174,0.4962336866770546,0.09470089254043984,-0.1085774771533132
186,1.8700000000000014,8.939920128783719,6.138253074253561,1.105563860581099,0.45012609527350134,0.12977904138083501,-0.5607660861159186,0.6827043982825484,7.724524286782994,2.406187035248991,-1.4938372843651537,0.5594540467310751,0.817252390704635,-0.10250872755118333,-16.753018345154302,-38.59273231277527,7.0983841368403855,0.0,0.0,0.0,0.0,0.0,0.0,0.0,0.0,0.0,0.0,0.0,0.0,0.0,0.0,0.0,2567.680271430339,2512.8094239796515,2513.9507403147845,2564.647957818048,2560.1053842289284,2519.9311239446674,2519.900308635117,2558.491599146228,43.82641507280335,0.4318171685221739,-0.20841770255914477,-0.10232165454869716
187,1.8800000000000014,9.016329889095207,6.160393712826001,1.0909858739883602,0.4519744924702367,0.12903422505694695,-0.5573430300137203,0.6844252872413104,7.557593075772649,2.0224959291909497,-1.4212778748761363,0.5313203356091433,0.5147828620843369,-0.10280002116588254,-16.650655331840625,-38.23885063715648,7.386259019213748,0.0,0.0,0.0,0.0,0.0,0.0,0.0,0.0,0.0,0.0,0.0,0.0,0.0,0.0,0.0,2565.5296179539055,2506.4102503328427,2509.741713298844,2560.501531058744,2557.8975536319167,2513.794511556226,2515.646874788677,2554.3148101666366,43.650071481956026,0.3132276024206212,-0.5270640003741629,-0.07179474777328916
188,1.8900000000000015,9.091076124877535,6.178712726101275,1.077146485791221,0.45299624058133653,0.1292420148290794,-0.5547225787732242,0.6858380043576472,7.391890634742782,1.6416959019169262,-1.34625615301703,0.48662978803799184,0.21207403732187802,-0.10279770425515071,-16.50707530769413,-37.98962699146702,7.593015790706703,0.0,0.0,0.0,0.0,0.0,0.0,0.0,0.0,0.0,0.0,0.0,0.0,0.0,0.0,0.0,2563.3555830123514,2501.85541795666,2508.430017156841,2557.003900828525,2555.5387978923777,2509.5433120597636,2513.947614200832,2551.3536501259423,43.579788070051414,0.18487473260154064,-0.8246002571387487,-0.05124243131800962
189,1.9000000000000015,9.164174161672253,6.193236780158722,1.0640649807405993,0.4532028483089397,0.13035619791236697,-0.5530029564030637,0.6868785701708615,7.228066453681005,1.2634868776785202,-1.2699121575974937,0.4083403966911492,-0.09742550286286872,-0.10087850527363142,-16.292249725665897,-37.74315266984352,7.670758575634151,0.0,0.0,0.0,0.0,0.0,0.0,0.0,0.0,0.0,0.0,0.0,0.0,0.0,0.0,0.0,2559.179431701798,2491.6214915515816,2507.326026367146,2552.4823240857486,2550.145472048954,2500.276821001718,2512.1431799672887,2547.3899236718794,43.576510270238145,0.07271072309934995,-1.090186428271312,-0.03733775755913028
190,1.9100000000000015,9.235644568491441,6.203987343935895,1.051749659491544,0.452606355023518,0.132313008316648,-0.5522872910129825,0.6874732746864166,7.066382089408351,0.8867625623222208,-1.193155851567242,0.30803572086931014,-0.4016812930091825,-0.09714322815856001,-16.070149647645415,-37.647618347765864,7.670697774464719,0.0,0.0,0.0,0.0,0.0,0.0,0.0,0.0,0.0,0.0,0.0,0.0,0.0,0.0,0.0,2556.9049395093066,2486.7541098106785,2508.648703934339,2549.5845060431816,2547.93564046455,2495.7831908044086,2512.912734159858,2545.1714471417367,43.650803048946955,-0.048094139400892424,-1.2810827546483257,-0.024666880953818443
191,1.9200000000000015,9.305509225010777,6.21097241892817,1.040200435956614,0.4512418874621006,0.1350414436771426,-0.552596628032019,0.6875911097279228,6.906937895571659,0.5101953435591697,-1.116845601606372,0.20274810393601284,-0.6896711372070418,-0.09234641353204862,-15.837877872337813,-37.676591378479564,7.58200064571346,0.0,0.0,0.0,0.0,0.0,0.0,0.0,0.0,0.0,0.0,0.0,0.0,0.0,0.0,0.0,2554.933420689838,2486.8629755683087,2511.1235943068978,2548.254236327418,2546.640308519024,2495.4865435561746,2515.010477264458,2544.3095818586457,43.77999104522187,-0.14655263276104663,-1.4099157372398647,-0.0161255178452682
192,1.9300000000000015,9.373790887335685,6.214187233146681,1.029408561474506,0.44918701699962194,0.13842861783674335,-0.553881389939228,0.6872291811337605,6.749790144318697,0.13251678334293449,-1.0418266486038086,0.0902735164280158,-0.9368057882001702,-0.08679822885292722,-15.60410856416894,-37.83101797552174,7.412114685927396,0.0,0.0,0.0,0.0,0.0,0.0,0.0,0.0,0.0,0.0,0.0,0.0,0.0,0.0,0.0,2553.1909535669874,2491.6383037658106,2517.9445092263563,2546.707410209527,2546.03258091373,2499.3449071880186,2520.584913772528,2544.161552682298,43.93723498855357,-0.24466243654843717,-1.5013052074358741,-0.009330851885148837
193,1.9400000000000015,9.440512617796902,6.213615127971135,1.019357002282382,0.4465629483480664,0.14231392653577182,-0.5560323210436442,0.6864082877059912,6.594954048998549,-0.24733706404878614,-0.968916820176741,-0.015591906983834334,-1.1344883143238955,-0.08081857020000142,-15.370682454888929,-38.081784153557756,7.1635325278605055,0.0,0.0,0.0,0.0,0.0,0.0,0.0,0.0,0.0,0.0,0.0,0.0,0.0,0.0,0.0,2551.702607203422,2500.13224730324,2525.9572301941976,2546.4785613327817,2546.072128082398,2506.457774897992,2527.7078359993366,2544.921372663907,44.129441535978344,-0.3347706780642189,-1.5525019081847775,-0.00580740608248752
194,1.9500000000000015,9.505697625112752,6.209230442572395,1.0100207007824757,0.4434922142130977,0.1465444092947504,-0.5589170680629437,0.6851650188565813,6.442447647991771,-0.6300946525191584,-0.8989022132904717,-0.11819934463359007,-1.2877794572494923,-0.07463375733766454,-15.136649471068075,-38.393951404207534,6.839318529632821,0.0,0.0,0.0,0.0,0.0,0.0,0.0,0.0,0.0,0.0,0.0,0.0,0.0,0.0,0.0,2551.8124355976456,2509.0091023648665,2534.293799313232,2547.2661407332735,2547.2034271001717,2514.3811737974183,2535.204810010338,2546.6019926678714,44.31050077066775,-0.3861756500310909,-1.6134226789024768,-0.00815932160760938
195,1.9600000000000015,9.56936905934966,6.201001141763973,1.001367172630032,0.4400883113670224,0.15097977873861254,-0.5624154493876294,0.6835321842461209,6.292227587558291,-1.0163449021176572,-0.8324679910539478,-0.21514309383478097,-1.3983119832652495,-0.06849642906396292,-14.910521888750417,-38.76152785628595,6.452252735616892,0.0,0.0,0.0,0.0,0.0,0.0,0.0,0.0,0.0,0.0,0.0,0.0,0.0,0.0,0.0,2553.2187275539636,2519.0570107922217,2543.06721189353,2549.086889399089,2549.7178273045315,2523.409114916184,2543.229763707004,2549.2463901220044,44.50130340821504,-0.41662904786291416,-1.6449942758584188,-0.012683533025898069
