,t,px,py,pz,qw,qx,qy,qz,vx,vy,vz,omex,omey,omez,accx,accy,accz,taux,tauy,tauz,jerkx,jerky,jerkz,snapx,snapy,snapz,bomex,bomey,bomez,baccx,baccy,baccz,mot1,mot2,mot3,mot4,motdex1,motdex2,motdex3,motdex4,f1,f2,f3,f4
1,0.02,-6.322501141096672,3.5218516156827357,0.4819708948103474,1.0,1.2165270103623684e-27,5.303110032292305e-28,3.800941958135414e-28,-2.1834191200666457e-25,-3.4119890274949356e-26,-0.09787941685783079,-4.141282798647678e-26,2.3232383638905356e-26,-9.193392323964714e-27,2.556460953304018e-26,1.4159770489058905e-26,-9.77116838689429,0.0,0.0,0.0,0.0,0.0,0.0,0.0,0.0,0.0,0.0,0.0,0.0,0.0,0.0,0.0,0.0,0.0,0.0,0.0,0.0,0.0,0.0,0.0,14.539373610896394,10.0,8.503435453708045,0.29973339801147403
2,0.03,-6.322500618515816,3.521850751760279,0.4809158093606712,0.9999796912672465,0.0053571699300623,0.003444562313677502,-0.00022972564100046897,0.0003002341009356253,-0.00048485081667750654,-0.07657989264271543,2.9816087059952046,2.0768320805655676,-0.1312111240587898,0.11484323804943417,-0.18033384474292954,9.632465859454307,0.0,0.0,0.0,0.0,0.0,0.0,0.0,0.0,0.0,0.0,0.0,0.0,0.0,0.0,0.0,0.0,2593.0518009286775,1351.0111093085238,1399.343463975053,0.0,2575.6380551736015,1513.6162501622023,1393.559434312837,14.539373610896394,10.0,8.503435453708045,0.29973339801147403
3,0.04,-6.322483048815166,3.521824968990644,0.48056311264446067,0.9993315362790169,0.029307390331230008,0.02182470318690031,-0.0011134635138675825,0.004090617345043849,-0.005797264878240616,-0.0020777859783808056,6.274574411073759,4.994408184958758,-0.18976197395467032,0.6283935279973668,-0.8471979976416525,5.4577769961778415,0.0,0.0,0.0,0.0,0.0,0.0,0.0,0.0,0.0,0.0,0.0,0.0,0.0,0.0,0.0,104.50033575260403,1971.3543743549203,1465.2379919621826,1456.6672143287283,358.5305471628538,1845.0531394072602,1471.9139458785685,1459.655733314978,14.539373610896394,10.0,8.503435453708045,0.29973339801147403
4,0.05,-6.322396976103266,3.521707577734184,0.4807828171116471,0.9965240109692249,0.0656620383490196,0.051235919877929186,-0.0018090870411574386,0.014486354592247773,-0.019364691239270718,0.044803256404219755,8.073905613414249,6.623375393042695,-0.11365559687036807,1.4254890329410217,-1.8325370085448127,4.467365186838553,0.0,0.0,0.0,0.0,0.0,0.0,0.0,0.0,0.0,0.0,0.0,0.0,0.0,0.0,0.0,879.2627109587811,1664.0858133558395,1471.1394093543788,1446.6381080159708,993.1822957561384,1613.009615830853,1466.4802536903023,1446.0689252337813,14.539373610896394,10.0,8.503435453708045,0.29973339801147403
5,0.060000000000000005,-6.322162216491297,3.521399582029508,0.48144933174602567,0.9903440813398763,0.10835551856457891,0.08644990934526513,-0.00202369115068586,0.03413474213314736,-0.04426186503504652,0.08794635812699703,8.994964584479298,7.4879052981543355,-0.02789627643596551,2.4205670334541685,-3.042154564729199,4.1486801415740455,0.0,0.0,0.0,0.0,0.0,0.0,0.0,0.0,0.0,0.0,0.0,0.0,0.0,0.0,0.0,1131.0499978562016,1532.649331939084,1457.6286040208302,1438.4488818024745,1180.8523578373693,1503.4045612821694,1453.4119964461138,1436.261385350522,17.78500536893305,5.058097489919218,3.8332827248752475,0.231540554241529
6,0.07,-6.321679805897735,3.5207807612883886,0.4825263275651521,0.9801804461507766,0.1540693722346439,0.12452247477705176,-0.0017535102753138253,0.0641006231291666,-0.08160323357215331,0.12647363388352562,9.472908484048183,7.957699043156206,0.055655797305919144,3.4706264342024213,-4.301267094333164,3.573704650914902,0.0,0.0,0.0,0.0,0.0,0.0,0.0,0.0,0.0,0.0,0.0,0.0,0.0,0.0,0.0,1251.3576263751536,1460.6844008661158,1442.00811556254,1431.4566134535628,1276.2986045641464,1445.9162400918372,1437.685581252592,1429.4541029502416,24.201408324675413,6.995681509757661,5.172996398019218,0.17188602702838665
7,0.08,-6.320815721716929,3.519689350364152,0.48405540792531887,0.967779552442822,0.19529291154467748,0.15894057267966924,-0.00114495861625253,0.11153951441763592,-0.14008169006968849,0.18152208401561684,7.28765100995004,6.048917203645944,0.10321008569492499,5.271562084153428,-6.478071999247131,5.367740506468849,0.0,0.0,0.0,0.0,0.0,0.0,0.0,0.0,0.0,0.0,0.0,0.0,0.0,0.0,0.0,1855.8629960085873,1035.8734322063922,1526.5026388303154,1590.5486516842063,1660.5139193381328,1388.5343945467916,1531.2546610260297,1596.1472925987387,27.292513503577975,6.66842388297575,4.966878025844532,0.27627250354317284
8,0.09,-6.319366498537817,3.51787829481226,0.48626078834224357,0.9550192079857033,0.23029171364239923,0.1868253256276373,-0.0005802672957125601,0.18342526616954674,-0.2284647702251171,0.26649537514594085,7.248054392661973,5.711527547128057,0.15462519171504874,8.337147401349526,-10.26590405629485,9.674617192225677,0.0,0.0,0.0,0.0,0.0,0.0,0.0,0.0,0.0,0.0,0.0,0.0,0.0,0.0,0.0,1865.2154709731797,1692.613883224965,1780.646858433774,1811.6873381466771,1908.0230041296634,1691.0929962346243,1794.5001323651954,1820.0575666552727,28.76548551508323,5.662301322019671,4.289924687723705,0.3458305568347773
9,0.09999999999999999,-6.317058126402821,3.5150085708280696,0.4894639168893226,0.9407872569286145,0.2639558720607451,0.21271256352743417,-1.108927697530549e-05,0.2819363030268784,-0.35014674093181336,0.3756571801092243,6.940738213772027,5.355169948366998,0.19191273733736772,10.695126197372561,-13.243350844851342,10.981373347809297,0.0,0.0,0.0,0.0,0.0,0.0,0.0,0.0,0.0,0.0,0.0,0.0,0.0,0.0,0.0,1940.821075217369,1859.997952245592,1907.4695690156432,1933.0770200533673,1941.491932508873,1873.873993679689,1916.2943112362098,1935.1646690482419,30.090730400139773,4.467985115696755,3.3286763955847833,0.40421939319279965
10,0.10999999999999999,-6.313665609856208,3.510795810960948,0.49377301752678127,0.9258555575173175,0.29496196888955256,0.23619578458777862,0.000689105260047379,0.399231761062453,-0.495832391587632,0.4852206283407015,6.286070221454015,4.850811589358836,0.2295747370717012,12.362047901726958,-15.384889124228417,10.554091387284469,0.0,0.0,0.0,0.0,0.0,0.0,0.0,0.0,0.0,0.0,0.0,0.0,0.0,0.0,0.0,2020.3346558262801,1880.3604340274287,1972.4483720618155,1982.6917873409484,1995.4693831375469,1915.9539817792077,1972.3477272134905,1986.9945607924906,31.497162068017843,3.1046871126305833,2.211612705246113,0.44825873790531895
11,0.11999999999999998,-6.309021316000279,3.5050248597267037,0.49914767587831016,0.9113853927408798,0.3219104438556228,0.2564133893454947,0.0015829717572207651,0.5319685602350551,-0.661369869700102,0.5884307427471791,5.372954794742322,4.13102850600026,0.2652239009579725,13.821089974087041,-17.26046646044155,9.866124286810884,0.0,0.0,0.0,0.0,0.0,0.0,0.0,0.0,0.0,0.0,0.0,0.0,0.0,0.0,0.0,2093.4999461369885,1890.0999060669562,2021.1293911543721,2028.335181378739,2058.0030900245283,1938.2639873915928,2020.5655467551574,2032.199751365618,32.525017153570005,2.2939974534706895,1.420460023262383,0.4248822805147568
12,0.12999999999999998,-6.302978419319634,3.4975069927887437,0.5055210446381734,0.8985959160379282,0.343849969642629,0.2725539230521414,0.0026338347721966077,0.67874318714284,-0.8449454030917543,0.6851727607962397,4.240196330538655,3.224446088481528,0.29688353405867973,15.158063833997758,-18.978452357215847,9.287449614381881,0.0,0.0,0.0,0.0,0.0,0.0,0.0,0.0,0.0,0.0,0.0,0.0,0.0,0.0,0.0,2162.298640203446,1909.0077047042553,2068.181107652047,2075.6754616855956,2120.3030084905113,1966.2190725329124,2067.9169057810614,2079.4682427524453,32.505955433328026,1.118663013958017,0.42939358048005316,0.44074919977446086
13,0.13999999999999999,-6.295407838959001,3.488076004087169,0.512830681703694,0.8881348818168868,0.36091844083099855,0.2845004759736572,0.0037134807106315743,0.8369400570828526,-1.043314217311191,0.7756443922673907,3.285755638568106,2.382183477871041,0.31912238709625657,16.16581170222531,-20.29883260435561,8.68399959492483,0.0,0.0,0.0,0.0,0.0,0.0,0.0,0.0,0.0,0.0,0.0,0.0,0.0,0.0,0.0,2193.2878598889356,1958.4067256512903,2094.985392125604,2107.903241094493,2158.8134086115374,2003.51096405236,2095.9268657946627,2109.0900362226657,31.736991845942914,-0.2562344879627556,-0.6528322055942942,0.4435639079041955
14,0.15,-6.286223848345382,3.476618549654538,0.5210014462836231,0.8804148187585195,0.3733372936497403,0.2923466639073536,0.004737107021350958,1.0003714692890249,-1.248956798080267,0.8570454220286358,2.208262354391204,1.4604743150506228,0.3364010982692865,16.46727257816849,-20.758131559170057,7.765292661131795,0.0,0.0,0.0,0.0,0.0,0.0,0.0,0.0,0.0,0.0,0.0,0.0,0.0,0.0,0.0,2200.2126756569332,1952.7358282658902,2095.642912579505,2108.4377081142557,2160.353906229617,2000.9078187759624,2095.0727886305817,2108.3987583441776,31.001980368975264,-1.117087055459015,-1.351212991453414,0.45316100695123407
15,0.16,-6.275406102553291,3.4631010520160213,0.5299349829573288,0.8760971155602086,0.3806512319123416,0.29584751309314933,0.005721253997004178,1.1628185685573804,-1.454246373928095,0.9282874707339142,0.9828744445845133,0.46063725050141097,0.35063745312605926,16.182104605806156,-20.492880455043938,6.828526989619665,0.0,0.0,0.0,0.0,0.0,0.0,0.0,0.0,0.0,0.0,0.0,0.0,0.0,0.0,0.0,2190.420710403754,1914.2319627271452,2074.0125750741677,2080.7493270340815,2144.327717135839,1968.4092497066647,2070.724269404615,2081.0216288329993,29.50997114405701,-1.82746291868213,-1.9143744983305395,0.463313745317779
16,0.17,-6.262980625624444,3.447546910871271,0.5395433571844978,0.8752331166787986,0.38309001780881086,0.2952366495889501,0.006659614362218722,1.321621873361989,-1.6559313202637689,0.9926476811810612,-0.04411671096779238,-0.38805693038473654,0.362093539412861,15.739948301232154,-20.039979261333272,6.304620932370386,0.0,0.0,0.0,0.0,0.0,0.0,0.0,0.0,0.0,0.0,0.0,0.0,0.0,0.0,0.0,2155.0249101269133,1905.5443163742827,2051.9890466137967,2054.361932079783,2116.7485909010657,1948.2762420688114,2048.6123247182177,2054.81949486519,27.00917232754352,-2.394825283557668,-2.212905541234202,0.47194529462366064
17,0.18000000000000002,-6.249002756278313,3.4300156955308783,0.5497644286025416,0.8773231932263401,0.38141821958043326,0.29114802558323233,0.007548748122437126,1.4725349039973605,-1.8487013254652747,1.0507772142067822,-0.9157436689762598,-1.1052092544081558,0.37323325413307695,14.794229018841865,-18.95218082690997,5.711287721674507,0.0,0.0,0.0,0.0,0.0,0.0,0.0,0.0,0.0,0.0,0.0,0.0,0.0,0.0,0.0,2090.6436854696526,1875.12820709977,2004.8576082679892,2004.6852417202151,2057.33240743105,1908.6069136840028,2000.71768429493,2003.4321465565017,27.569946210134336,-2.801611588381032,-2.4385892096099924,0.4782284063571069
18,0.19000000000000003,-6.233579610448876,3.410632689772516,0.560525790134442,0.8817642366261854,0.37628901322697694,0.2843003089155249,0.008470176045723433,1.6098173263391795,-2.025154433182121,1.1002540947697461,-1.6371354058741154,-1.6234943579365573,0.3847911401096553,13.264750446380091,-17.09752770904771,4.786043644543714,0.0,0.0,0.0,0.0,0.0,0.0,0.0,0.0,0.0,0.0,0.0,0.0,0.0,0.0,0.0,1987.6789220237804,1811.2071150712163,1926.1154216602692,1914.6352676785125,1959.3493937369049,1834.4440010563612,1918.0969431285332,1913.6150000387963,29.543868648084274,-3.0337377346303227,-2.594813578524613,0.48500520360751664
19,0.20000000000000004,-6.216818852440287,3.3895249990040885,0.5717838684302033,0.8879164928351873,0.3683368054608067,0.2753941122832618,0.009506966598390617,1.7420678686292166,-2.196215451725447,1.152664706580473,-2.2018577534942496,-2.007583351666038,0.3968821516427717,13.122623740982942,-17.02019938704069,5.5730172140653345,0.0,0.0,0.0,0.0,0.0,0.0,0.0,0.0,0.0,0.0,0.0,0.0,0.0,0.0,0.0,1982.8945188629057,1848.7127337835825,1942.392622610446,1926.452008913386,1964.9062473547933,1870.515946322075,1939.5041792011045,1930.2548525812233,29.144468005370815,-3.0917080872698897,-2.6246738120285342,0.4937247527613829
20,0.21000000000000005,-6.198722849264374,3.366684604557253,0.5836338654779719,0.8951979492157744,0.35821900488066527,0.2649270713936401,0.010650028402162596,1.8777777939643698,-2.372896104778093,1.220169819887379,-2.6012208532772982,-2.2859446699624777,0.40944884917359237,13.625184454565176,-17.789956429668408,7.388695974428261,0.0,0.0,0.0,0.0,0.0,0.0,0.0,0.0,0.0,0.0,0.0,0.0,0.0,0.0,0.0,2029.7142256695167,1935.5092017613235,2005.5133371883833,1992.1383929966428,2020.2058713725614,1953.0527796103684,2006.6042921652524,1997.0367355123167,28.7738443699165,-3.027258557283122,-2.5594498028026447,0.5027566220749853
21,0.22000000000000006,-6.1792764992428895,3.342080653061069,0.5962155301335972,0.9030532979306518,0.3466362099262751,0.25337164668438555,0.011869613345161024,2.0104783657934493,-2.5467500071432694,1.2972320749929656,-2.831559763066168,-2.447000921128513,0.4223597150675513,13.010587556918196,-17.09532694607363,8.018079480459184,0.0,0.0,0.0,0.0,0.0,0.0,0.0,0.0,0.0,0.0,0.0,0.0,0.0,0.0,0.0,2002.3809477586503,1945.0086352050525,1994.3256180228643,1983.1541493653965,1995.5727559042857,1951.671308407245,1992.474329135628,1983.4033070511166,28.97633554255087,-2.8631353022598085,-2.4383782198815536,0.51082595249182
22,0.23000000000000007,-6.158535992571373,3.3157757389904674,0.6095973907536372,0.91099274538454,0.3342627788204545,0.2412209375889074,0.013155676367824894,2.1365108533748587,-2.7129574848396714,1.3801325591538616,-2.917414416081379,-2.502175432717588,0.4353069935883696,12.322468064897674,-16.30247811561425,8.585689985430411,0.0,0.0,0.0,0.0,0.0,0.0,0.0,0.0,0.0,0.0,0.0,0.0,0.0,0.0,0.0,1973.531120167776,1949.9302643115352,1980.8015776273112,1971.0131397041066,1972.0415647508767,1950.8026907508452,1979.3044855879946,1970.623464329395,29.145220590073134,-2.632438067085526,-2.254674629901702,0.5158588863750236
23,0.24000000000000007,-6.136562918783567,3.2878394343308903,0.6238463155344229,0.9186446162572953,0.3216893111713922,0.22890562721056876,0.014500687256055314,2.2573132495003816,-2.873468775203833,1.471121510320966,-2.880889738283934,-2.475315995690662,0.44785684476524806,11.856347414126223,-15.812202900693073,9.47893468046046,0.0,0.0,0.0,0.0,0.0,0.0,0.0,0.0,0.0,0.0,0.0,0.0,0.0,0.0,0.0,1965.954927077875,1970.4440304371974,1985.1678992063212,1977.6578714516543,1969.7510170250935,1967.9172517193892,1985.3011644726298,1977.5215956873512,29.158164776601776,-2.3193754211287514,-2.0318203822863947,0.5199339410383392
24,0.25000000000000006,-6.1134054651819385,3.2583228101336634,0.6390491762029531,0.9257492559391612,0.30940924954508525,0.21679790748660271,0.01590279011579436,2.3733650486058995,-3.0290050784912412,1.5708418890878075,-2.7498575234007756,-2.374588898781356,0.45948426631703604,11.377190272713111,-15.312390383042551,10.32945366845306,0.0,0.0,0.0,0.0,0.0,0.0,0.0,0.0,0.0,0.0,0.0,0.0,0.0,0.0,0.0,1960.812193075694,1988.3253420991352,1989.768967035136,1983.2059887797884,1968.2048100793984,1982.2851539645455,1990.087062070693,1982.8888823436187,29.114749595459532,-1.9524211746257067,-1.7859369053129812,0.5247295914455677
25,0.26000000000000006,-6.0891132188667845,3.227278115016288,0.6552875519797661,0.9321284277628793,0.297856942188961,0.20522297404045778,0.01735992719266067,2.4841971528299984,-3.17899075453894,1.6779560118507717,-2.529352294376963,-2.2165109699964587,0.4698702878461602,10.843967334463578,-14.744613844118515,11.007610865164663,0.0,0.0,0.0,0.0,0.0,0.0,0.0,0.0,0.0,0.0,0.0,0.0,0.0,0.0,0.0,1952.304741711462,1999.2825419014764,1988.728532692177,1984.3196675674321,1962.5819824049113,1989.9827954916104,1989.3783152316705,1983.2207718055997,29.051518139731144,-1.562293766282721,-1.5166638632312024,0.5291751646538858
26,0.2700000000000001,-6.063739623832695,3.19476227918512,0.6726280315603061,0.9376719086313218,0.2874191521949899,0.19443736451138074,0.018860911883463508,2.5896437777790404,-3.3232558017691507,1.7910531754633587,-2.237662719123417,-2.017045327041517,0.47898584664905997,10.311624413208875,-14.184023008182223,11.554108524208795,0.0,0.0,0.0,0.0,0.0,0.0,0.0,0.0,0.0,0.0,0.0,0.0,0.0,0.0,0.0,1943.6322469800448,2005.8669187249536,1985.441216832652,1983.9265961861283,1956.1729863463715,1994.2162891513526,1986.611661193653,1982.1787605749826,28.93889701744859,-1.1687746708641453,-1.2425081748010145,0.5304814799807173
27,0.2800000000000001,-6.037337727639093,3.1608310902355417,0.6911244973277212,0.9423322900893463,0.2783891300022177,0.18464323233180624,0.020401571156149687,2.689911892864315,-3.462145758842824,1.9089711538668175,-1.8988678482021208,-1.7842076199663344,0.4868839162899129,9.810131831733848,-13.6715006792123,11.988866749141458,0.0,0.0,0.0,0.0,0.0,0.0,0.0,0.0,0.0,0.0,0.0,0.0,0.0,0.0,0.0,1936.163300797902,2009.613715453523,1982.072717107722,1982.3164972386974,1950.3301534632544,1996.3623359738003,1983.3992916906218,1980.4026896877392,28.779497589049086,-0.7998817440003316,-0.956451246218213,0.5282819750862922
28,0.2900000000000001,-6.009957784726816,3.1255359844803756,0.7108189298759027,0.9461119928695476,0.270954308092556,0.17598997054061843,0.02198613525860131,2.7853128545356185,-3.5961248665391836,2.030430555804598,-1.5344618096252485,-1.5316076466599224,0.49346421640175947,9.342063364156772,-13.207037017858525,12.289452617903152,0.0,0.0,0.0,0.0,0.0,0.0,0.0,0.0,0.0,0.0,0.0,0.0,0.0,0.0,0.0,1929.4927459547769,2009.7104012702832,1977.2190936282543,1978.577492506863,1944.3923261796176,1995.607534891954,1978.5268305695743,1976.5597914673592,28.598684547051025,-0.43287172948934305,-0.6702622914797435,0.524515725834947
29,0.3000000000000001,-5.981646576607998,3.0889234655822757,0.7317400621750694,0.9490499459917472,0.2651892235942658,0.16858399827629367,0.023628610363517787,2.8762412659263648,-3.7257259447972992,2.1540997579162084,-1.1694415606828463,-1.2624793635841474,0.49859728778293816,8.917673386708014,-12.798406620547098,12.4584071681344,0.0,0.0,0.0,0.0,0.0,0.0,0.0,0.0,0.0,0.0,0.0,0.0,0.0,0.0,0.0,1923.229015450601,2006.6802787209729,1971.5977469821107,1971.9880243430512,1938.2759284549184,1992.2512466693006,1972.3623649776348,1970.3894745843052,28.383068594492673,-0.0813701413875833,-0.4031505429472273,0.5217370747251606
30,0.3100000000000001,-5.95244625722896,3.0510341318746916,0.7539040320547794,0.9511957179354171,0.2611087541018616,0.16250093504608096,0.02534503544778184,2.963234569140617,-3.8516066461338867,2.2788228254242355,-0.8039292279942247,-0.9847644217079173,0.5023312249630888,8.551984738420337,-12.459719703433958,12.519227992400683,0.0,0.0,0.0,0.0,0.0,0.0,0.0,0.0,0.0,0.0,0.0,0.0,0.0,0.0,0.0,1917.0600102427156,2002.053463421908,1964.9567482860357,1964.7789883817488,1932.1652094333924,1987.4454829801864,1965.5055376150974,1963.3744806327672,28.140205584401585,0.23597516320445916,-0.1440075035006652,0.5199263175358565
31,0.3200000000000001,-5.922393263771177,3.011901827417123,0.7773158326494986,0.9526003950227925,0.2587024205256232,0.1577621561645083,0.027141243503728905,3.0468743117889665,-3.974430030526587,2.4034864615917297,-0.44622429831423227,-0.7117309779540343,0.5049515751250225,8.244288192657212,-12.18547840879447,12.46879531408851,0.0,0.0,0.0,0.0,0.0,0.0,0.0,0.0,0.0,0.0,0.0,0.0,0.0,0.0,0.0,1910.8176184172573,1994.7805654457102,1956.7813243705473,1957.1152576110997,1925.4150124704636,1980.4485358998236,1957.3337664667074,1955.6540542742848,27.876355490638375,0.5161085649072588,0.09740537704435667,0.5156731470832704
32,0.3300000000000001,-5.891518170104873,2.971553865222215,0.8019695865059835,0.953319638854008,0.2579055698768292,0.1543503543289808,0.029023289274134598,3.1277555683660174,-4.094846086783739,2.52705319151887,-0.10958731038345937,-0.44443503759227815,0.5068110260308346,7.996524767601709,-11.975046250619847,12.319169013780495,0.0,0.0,0.0,0.0,0.0,0.0,0.0,0.0,0.0,0.0,0.0,0.0,0.0,0.0,0.0,1904.3568369072368,1985.4492078270355,1948.2995848531543,1948.1596683776772,1918.184501991191,1971.6651563139546,1948.4875914745369,1947.0103780043326,27.57998198081193,0.7377062469943658,0.32994984448048914,0.5091597224158356
33,0.34000000000000014,-5.859845537612651,2.930011174588291,0.8278496649819186,0.9534104618474146,0.2586011042797444,0.15222649588509096,0.0310008718545567,3.2064822322415574,-4.213475463434534,2.6486112083924502,0.19830274004880175,-0.18884527428023418,0.5079759986278868,7.808585819307989,-11.824025311032216,12.083145311938548,0.0,0.0,0.0,0.0,0.0,0.0,0.0,0.0,0.0,0.0,0.0,0.0,0.0,0.0,0.0,1898.2118667268587,1974.6160931527209,1939.0662598377376,1938.0819694031522,1910.9646783704823,1961.7111289834124,1938.8697735005724,1937.2518677182766,27.298799808163096,0.9216418488039404,0.5543209771075159,0.5013232894628729
34,0.35000000000000014,-5.827394086123133,2.88728899222974,0.854931574704447,0.9529337870119139,0.26061333297007117,0.15133743673834357,0.033088797059293774,3.2836089902354244,-4.3308182514700695,2.767280700100247,0.46243153217450583,0.05659347652605776,0.5083954466674628,7.673730682566493,-11.716457917592571,11.76061074336987,0.0,0.0,0.0,0.0,0.0,0.0,0.0,0.0,0.0,0.0,0.0,0.0,0.0,0.0,0.0,1891.8468529876995,1962.0317867154859,1929.3927880268375,1925.8047957950166,1903.2279383588107,1950.2413451166476,1928.3686276832325,1925.701906966978,27.013408907068367,1.0751224530961447,0.7469428003649735,0.4955760165433604
35,0.36000000000000015,-5.794176851203787,2.843397647787635,0.8831833207571556,0.9519464424304145,0.2637405377560744,0.15163241377354814,0.035305956741344124,3.3597421254796687,-4.447392888438449,2.8825070432971764,0.6867010622469892,0.29266024797939755,0.5080742525381932,7.601545880221661,-11.661242219297208,11.396101775275724,0.0,0.0,0.0,0.0,0.0,0.0,0.0,0.0,0.0,0.0,0.0,0.0,0.0,0.0,0.0,1885.8973495945302,1949.9431738684525,1920.192911508602,1913.7052915575325,1896.152768192602,1939.1967691676605,1918.5190577581322,1914.3227030378214,26.731277467683903,1.1869406442523882,0.927512864730011,0.4917691782014362
36,0.37000000000000016,-5.760200866803578,2.798342647053823,0.9125681582590761,0.9504973499476764,0.2678002427469172,0.15303421497232772,0.03766094495548349,3.435445573707312,-4.56360464541167,2.993820151970537,0.8758255348836927,0.5082125028369296,0.5072526961281055,7.58177815371841,-11.639627561398136,10.984129846867141,0.0,0.0,0.0,0.0,0.0,0.0,0.0,0.0,0.0,0.0,0.0,0.0,0.0,0.0,0.0,1879.9756805726295,1936.996975277457,1910.1497474522432,1902.606784765689,1888.841879108679,1927.4736515408938,1908.3277827083118,1903.402576747507,26.456261641098067,1.2721655751432812,1.0903507110740602,0.48528168805532007
37,0.38000000000000017,-5.7254678952405635,2.752126057803722,0.9430448560787087,0.9486335268791207,0.2726121223331108,0.15544881490595944,0.04015878960141241,3.5112185029691796,-4.679752859411026,3.100819384371248,1.026211353181525,0.7078534158981112,0.5062213216037814,7.609756212009877,-11.644081022000208,10.536559236555387,0.0,0.0,0.0,0.0,0.0,0.0,0.0,0.0,0.0,0.0,0.0,0.0,0.0,0.0,0.0,1873.8325084087887,1923.9044982810994,1900.6722347199236,1891.4905203328472,1881.427303031538,1915.5418176545174,1898.4001990135116,1892.777289830079,26.172384500137056,1.3101988409908498,1.2374091640243534,0.4765714237478923
38,0.3900000000000002,-5.689974936367485,2.7047473537618396,0.9745687178808573,0.9463970615962367,0.27800437147749957,0.15878871519371968,0.04280555067438403,3.5875139523371913,-4.796056881184263,3.2032082469227166,1.1443589152329732,0.8903532549712876,0.5048959181619993,7.680757013877493,-11.666871567659776,10.062886855639164,0.0,0.0,0.0,0.0,0.0,0.0,0.0,0.0,0.0,0.0,0.0,0.0,0.0,0.0,0.0,1867.8756998756755,1911.4489345683494,1890.929204605504,1880.5664511296584,1874.3462679232775,1904.1709705955966,1888.3819180955322,1882.1441872101566,25.936710447988144,1.307275970877678,1.37933078111709,0.4658838921625551
39,0.4000000000000002,-5.653714872541258,2.656204452517518,1.0070921107935,0.9438328583226441,0.28379933496258924,0.16296456124600306,0.04560728892619491,3.6646934876380772,-4.912594653023389,3.300674303803794,1.222261956635169,1.0563378743055936,0.5030637410003168,7.784003049832844,-11.691039521260826,9.557706103755503,0.0,0.0,0.0,0.0,0.0,0.0,0.0,0.0,0.0,0.0,0.0,0.0,0.0,0.0,0.0,1862.0508533833718,1898.5589842779236,1881.0231933958473,1868.7307933867237,1867.159333194575,1892.534701526098,1877.9588071660276,1870.8064518416102,25.71543463051992,1.2802486229577261,1.4906236711053789,0.457495915623219
40,0.4100000000000002,-5.616676851059299,2.6064943418759396,1.040565566990412,0.9409910773401228,0.289802740379513,0.1679001594175467,0.04857674857750271,3.7431776692501177,-5.0295259904651335,3.3932415661718647,1.2599712779350403,1.211275798249036,0.5005459795180296,7.932202117988396,-11.734535767282672,9.069090709839855,0.0,0.0,0.0,0.0,0.0,0.0,0.0,0.0,0.0,0.0,0.0,0.0,0.0,0.0,0.0,1857.7084913654712,1887.6223526921935,1873.0717609392777,1857.8057982891364,1861.7136419368505,1882.795033791171,1869.4020668669475,1860.6829778962149,25.48255297006495,1.2012506360281854,1.6085231291336775,0.45324394744858243
41,0.4200000000000002,-5.578845923376112,2.5556127014838452,1.074940384737778,0.9379216156474626,0.2958427053910701,0.1735083759371266,0.051720209278452764,3.8233247522765623,-5.146892923385651,3.4809427863046114,1.2658750631685471,1.345189524400417,0.4974832957946234,8.111267900859698,-11.774825138627598,8.58002249393186,0.0,0.0,0.0,0.0,0.0,0.0,0.0,0.0,0.0,0.0,0.0,0.0,0.0,0.0,0.0,1853.8226078969738,1876.7386633775166,1865.00317573392,1848.633849252403,1856.5262527823088,1873.174762701006,1861.2830652126231,1851.6717563172995,25.261578691881773,1.1269569265073882,1.7175748510112132,0.44615236868143177
42,0.4300000000000002,-5.540204297360848,2.503555882988741,1.1101673964818553,0.9346796273653328,0.30174034913020525,0.17971118122425378,0.05505131458891596,3.905346716228049,-5.264520765345463,3.563658621564372,1.2291374469175411,1.4720672806907809,0.49424361671877926,8.307322381083004,-11.79020340673631,8.07673510738871,0.0,0.0,0.0,0.0,0.0,0.0,0.0,0.0,0.0,0.0,0.0,0.0,0.0,0.0,0.0,1848.687868841369,1865.3680967826576,1858.2029269607244,1838.249188381732,1850.2518971521172,1862.8267683480215,1853.5978285988992,1842.2111735543247,25.04289755154726,1.0391915362446844,1.8058137171620505,0.43601576825874766
43,0.4400000000000002,-5.500732213902746,2.450322337551429,1.146196628938704,0.931306734747516,0.3073564767704679,0.1864599115539599,0.05858722885112548,3.989451628931078,-5.382204517230598,3.6413967113206023,1.174803757203258,1.5902837445993872,0.4907462979246636,8.524877784911844,-11.785955591796515,7.5804613329988335,0.0,0.0,0.0,0.0,0.0,0.0,0.0,0.0,0.0,0.0,0.0,0.0,0.0,0.0,0.0,1843.001311117273,1855.7265616539153,1850.576381154617,1828.9418825745804,1844.0488927671079,1853.738846063097,1845.8264415127542,1833.0799171412423,24.885933824462953,0.9039687307142441,1.9005050352928543,0.423029625848208
44,0.45000000000000023,-5.460407914475583,2.3959126619291164,1.182978544748447,0.9278328897928625,0.31260961911904206,0.193691712476551,0.062328766799724704,4.075814974205253,-5.499702154872632,3.714202006044634,1.1038264719798812,1.6939220552415335,0.4866854749990508,8.757491058007716,-11.755131443633715,7.0886653983719405,0.0,0.0,0.0,0.0,0.0,0.0,0.0,0.0,0.0,0.0,0.0,0.0,0.0,0.0,0.0,1837.6902926147595,1846.379922050759,1841.9535740069496,1820.217078689799,1838.002298800157,1845.1241355575025,1837.3076978258705,1824.2586926324266,24.745009096469957,0.7443736510657432,1.9774048406188516,0.41276432662043167
45,0.46000000000000024,-5.419207488131681,2.3403292073175557,1.220465272462046,0.9243002776434563,0.3173832831444565,0.2013525732204647,0.06628717512590672,4.164731487921567,-5.616954974286072,3.7824321840913364,1.000206735068415,1.7935536051251464,0.4817637322500375,9.02498175466615,-11.724937991298034,6.645637128286808,0.0,0.0,0.0,0.0,0.0,0.0,0.0,0.0,0.0,0.0,0.0,0.0,0.0,0.0,0.0,1834.8629755745587,1839.2465525104149,1836.6242105308206,1811.978137457345,1834.427289238903,1838.930007468218,1831.3297237174756,1816.939617850198,24.571500072895322,0.537921366327648,2.0747360444833736,0.4066251188328913
46,0.47000000000000025,-5.377104108322003,2.2835751111827145,1.2586127414822623,0.9207601248229598,0.32153953555809434,0.20939314327702474,0.07048142420283394,4.256434446369532,-5.733784589747471,3.8463873087245513,0.8690829093157301,1.8818114893514148,0.4761211582206841,9.310600607318698,-11.668787301283956,6.226637182709105,0.0,0.0,0.0,0.0,0.0,0.0,0.0,0.0,0.0,0.0,0.0,0.0,0.0,0.0,0.0,1832.6707626192488,1832.0853061690088,1831.9646317321199,1805.0669269960642,1831.240128020883,1832.765605919537,1826.3893204964465,1810.4598445964982,24.404141137880014,0.368044343144346,2.1712244905133713,0.3968902446878498
47,0.48000000000000026,-5.33406965481158,2.2256567886170955,1.2973784913470852,0.9172663369602838,0.32492528898078726,0.2177826478033805,0.07494492628566478,4.35094267866988,-5.849706119108147,3.9060857690094832,0.7002036973115014,1.9746408976040644,0.47013119295223554,9.592084620146935,-11.55423582373416,5.803063636583339,0.0,0.0,0.0,0.0,0.0,0.0,0.0,0.0,0.0,0.0,0.0,0.0,0.0,0.0,0.0,1828.3394843576714,1823.8495824654601,1828.0862323943834,1796.0158918589404,1826.136364092184,1825.1328828515404,1821.3597361992538,1802.5697727404213,24.239763870209913,0.2180709003021951,2.2409869587032762,0.38424561734082474
48,0.49000000000000027,-5.2900758540619375,2.166585757127562,1.3367205466576102,0.9138405636279454,0.32746007618284917,0.22652207087601695,0.07970617404268307,4.448320746403609,-5.964256117105313,3.9616850284535934,0.5325085717512634,2.068615281247779,0.4636831693368494,9.883690539448153,-11.397877336520423,5.402347321536105,0.0,0.0,0.0,0.0,0.0,0.0,0.0,0.0,0.0,0.0,0.0,0.0,0.0,0.0,0.0,1822.6894105822842,1817.832566749586,1822.2875870270436,1788.6294116824843,1820.6770798020605,1818.9398355561545,1815.6355019309347,1795.111660966527,24.148094628548858,0.005709983687663678,2.3306639051554443,0.3676319691479827
49,0.5000000000000002,-5.245093539464595,2.106377809737788,1.3765990167290216,0.9104763091871871,0.3291670317116708,0.23558120723488069,0.0847552384266708,4.548658117858705,-6.077021606956392,4.013402935663844,0.3738018589529212,2.1502457719878048,0.4565041648689113,10.183024729785828,-11.2011352145851,5.022933519231998,0.0,0.0,0.0,0.0,0.0,0.0,0.0,0.0,0.0,0.0,0.0,0.0,0.0,0.0,0.0,1817.4142998257314,1812.1134997630966,1814.429603754705,1783.0316457725667,1815.3088052095882,1813.3101348807716,1808.5450466024154,1788.7337155118967,24.068640449329532,-0.2293467608844058,2.4272797146852847,0.3548410469083344
50,0.5100000000000002,-5.199091864810385,2.045051735802833,1.4169773954518012,0.9071893035555626,0.32999719251785425,0.24493090039458093,0.09010146767177235,4.652252436141506,-6.187866175861026,4.06176824196824,0.18674304354944565,2.2360171994270295,0.44823385789704256,10.521147524044316,-10.999744554706758,4.709412508686839,0.0,0.0,0.0,0.0,0.0,0.0,0.0,0.0,0.0,0.0,0.0,0.0,0.0,0.0,0.0,1815.794929605869,1808.4865900273253,1811.4387352137644,1776.977238886702,1813.2372983368462,1810.3808410764407,1804.7290554104798,1783.8501316594336,23.934938493958157,-0.4897903030814262,2.5602303207405237,0.34666549630641497
51,0.5200000000000002,-5.152036994298396,1.982627921233108,1.4578244787269712,0.9040078813364666,0.3298298750842702,0.25457239522772657,0.09578569606922588,4.759321172635646,-6.296502094705035,4.107196191973257,-0.023836705374607414,2.326441807176126,0.43907159934069384,10.87433565693896,-10.759225144809648,4.428654760850748,0.0,0.0,0.0,0.0,0.0,0.0,0.0,0.0,0.0,0.0,0.0,0.0,0.0,0.0,0.0,1814.2838138572954,1804.905727597094,1810.0839932498761,1771.3508402827404,1811.2350473947745,1807.2662557903961,1802.6335382554892,1779.1617932397105,23.789377153015906,-0.7088624982811162,2.708962121307724,0.3346124287431474
52,0.5300000000000002,-5.103894426219755,1.9191315538849112,1.4991113182409261,0.9009437710734425,0.32854441605530116,0.26454185431493676,0.10186508409882376,4.869767111019441,-6.4022487569417095,4.149713730366547,-0.259126484948077,2.4370829281148727,0.4294709388821219,11.208965788066294,-10.438721641009785,4.140149843149921,0.0,0.0,0.0,0.0,0.0,0.0,0.0,0.0,0.0,0.0,0.0,0.0,0.0,0.0,0.0,1809.2695813666414,1799.9277690873873,1808.4566295815584,1763.2136183730897,1806.1562308433072,1802.0827681157564,1799.7149422670736,1772.2892082794651,23.648534450030773,-0.883456977221307,2.8157483250896016,0.31939376560622906
53,0.5400000000000003,-5.05463074593339,1.8545949850125034,1.5408091629282632,0.8979641567579897,0.3260960342968999,0.27490794031124005,0.10838530318996008,4.983547674514038,-6.5044409370605605,4.189424488831105,-0.4849564813567264,2.5650777482134743,0.41932665412408815,11.544832633354929,-10.056652211466677,3.867472811122319,0.0,0.0,0.0,0.0,0.0,0.0,0.0,0.0,0.0,0.0,0.0,0.0,0.0,0.0,0.0,1802.3343929135178,1796.4782717797616,1804.3131034109808,1755.9621059062556,1800.0118761988047,1797.7742296151619,1795.3873358533622,1765.175842740051,23.594800384500154,-1.1376085975709118,2.9526947383872857,0.2989470647040764
54,0.5500000000000003,-5.004212259780624,1.7890565151841813,1.5828909919496374,0.895011142802914,0.3225561593423042,0.28567724257566834,0.11533035768316517,5.100743429023403,-6.60254637962565,4.226546638312915,-0.6848598896067845,2.68150088855591,0.40837453850432337,11.890281158240867,-9.625591835403569,3.6176270785688303,0.0,0.0,0.0,0.0,0.0,0.0,0.0,0.0,0.0,0.0,0.0,0.0,0.0,0.0,0.0,1796.5100071665963,1792.6940558847514,1796.690479795532,1752.0362405798624,1794.4152978145758,1793.754577059096,1789.043816526157,1759.9115933126493,23.579966185372236,-1.3467226365160485,3.1131572594341197,0.27935829767431036
55,0.5600000000000003,-4.952603090891537,1.7225582937894566,1.6253333668287615,0.892061971147647,0.3179010312117825,0.2968293912276023,0.12270569053679253,5.221768097008206,-6.696364874728193,4.261641031260849,-0.9142331962023196,2.808259816153259,0.39613597068840833,12.290303909783695,-9.1838188266955,3.437503663982433,0.0,0.0,0.0,0.0,0.0,0.0,0.0,0.0,0.0,0.0,0.0,0.0,0.0,0.0,0.0,1795.6530870748843,1791.0195929354923,1795.2921537970713,1747.0775797713086,1793.2260918403197,1792.7126189940448,1786.6114291569525,1756.4316595352448,23.501608354199544,-1.5057398994801525,3.347921632702417,0.26541107644494194
56,0.5700000000000003,-4.899762754950962,1.6551444537801367,1.668118798703278,0.8890752254111591,0.31207981141921104,0.30840011240219817,0.13054043639791374,5.347029703119919,-6.785602711881657,4.295221465835479,-1.1317479845738518,2.9507479988380765,0.3825981201943244,12.725383846516891,-8.704872731421176,3.299661163975287,0.0,0.0,0.0,0.0,0.0,0.0,0.0,0.0,0.0,0.0,0.0,0.0,0.0,0.0,0.0,1794.1924335126364,1792.6400459602783,1795.0941731016405,1744.5269178257777,1792.5962305850358,1793.5617662476698,1786.2715955794463,1754.2779120064922,23.38234555054807,-1.7410727567690367,3.5874225035802385,0.24881884777226612
57,0.5800000000000003,-4.845648905432388,1.5868640915541588,1.711232326193516,0.8859305712593284,0.3051505972109615,0.32051703175272267,0.13884872446780974,5.476437527962493,-6.86953301191841,4.327221184630803,-1.319646541502194,3.1376372956676573,0.36828435813265287,13.13589288603989,-8.140731671254287,3.1347503641852015,0.0,0.0,0.0,0.0,0.0,0.0,0.0,0.0,0.0,0.0,0.0,0.0,0.0,0.0,0.0,1786.3418425256295,1794.8552830158783,1793.9223808593347,1739.8537747525208,1786.8944486935604,1793.303068624629,1784.4772746774515,1750.1535353800116,23.173590049540454,-1.9483324550927805,3.7526102041324307,0.22882016372305436
58,0.5900000000000003,-4.7902210545960076,1.517774284584165,1.754656899354015,0.8825225109329699,0.29707479264027514,0.33330404183786627,0.14767870858334972,5.609811954223028,-6.947364852741446,4.357399435101851,-1.5337217294228003,3.348111803774184,0.35315849543606614,13.531240390252997,-7.4982147090052464,2.947253532575189,0.0,0.0,0.0,0.0,0.0,0.0,0.0,0.0,0.0,0.0,0.0,0.0,0.0,0.0,0.0,1780.6097191258727,1792.1264248554191,1792.4490235510132,1731.8471020774132,1780.8428139485125,1790.7030116651756,1781.6640645527234,1743.4885579987802,22.819685120609986,-2.22141285253097,3.9333308777857012,0.20182311794699276
59,0.6000000000000003,-4.733441215737072,1.4479404570425398,1.798372468651094,0.8788053794324092,0.28779262204691985,0.34672187685347067,0.15703646674331667,5.746758557173725,-7.018184235973264,4.385348207081379,-1.743036768883474,3.5351236205335024,0.3369784825458102,13.874749630448768,-6.76005537122748,2.711075298955201,0.0,0.0,0.0,0.0,0.0,0.0,0.0,0.0,0.0,0.0,0.0,0.0,0.0,0.0,0.0,1774.6747240084198,1783.5181209849268,1783.2101617132648,1724.6435914279987,1773.735815610046,1782.894593871019,1773.3366230414338,1734.9644989366946,22.83844261169563,-2.4960877038009803,4.111415310875842,0.1742003476235027
60,0.6100000000000003,-4.675277789322385,1.3774379764811948,1.8423533203023164,0.8747596093216986,0.27722379188009694,0.36066658986009675,0.1669197593865359,5.886376420591083,-7.080922912407064,4.410342899532901,-1.9855301792033992,3.7200967591715965,0.3191123350135899,14.113078102644394,-5.911311730524282,2.3955913580744337,0.0,0.0,0.0,0.0,0.0,0.0,0.0,0.0,0.0,0.0,0.0,0.0,0.0,0.0,0.0,1764.6030225654654,1769.3296893355914,1770.2009906681164,1708.7198279286401,1762.5014897059116,1769.2825312142713,1759.199185809079,1719.748251438234,23.115201931330905,-2.7692096927445036,4.3268149399696405,0.15225975237640318
61,0.6200000000000003,-4.615699279720872,1.306347949811138,1.8865743221030067,0.8703531160767274,0.26525021327337855,0.37506615223785117,0.17735038522498703,6.0301336814002475,-7.135765436165972,4.4336810495973635,-2.242957573951346,3.9015272658923816,0.29937574410659007,14.593702856670276,-5.12355434006917,2.286126937172561,0.0,0.0,0.0,0.0,0.0,0.0,0.0,0.0,0.0,0.0,0.0,0.0,0.0,0.0,0.0,1767.064638912825,1768.8299979855099,1770.3973439343372,1706.6611143229093,1765.1312987266638,1769.8544196859993,1759.716989218983,1718.8695190434546,23.148044764476378,-3.084446452741259,4.60476388415546,0.13026339924948943
62,0.6300000000000003,-4.554653412006857,1.234748028974097,1.9310276242389874,0.8655097701079484,0.25179699694104657,0.38989505792005674,0.18834265047692383,6.180138599798656,-7.182871427000601,4.457015765757936,-2.5075797787140717,4.099617877882524,0.27821491117586594,15.27278867448878,-4.330451923990175,2.3242163278105465,0.0,0.0,0.0,0.0,0.0,0.0,0.0,0.0,0.0,0.0,0.0,0.0,0.0,0.0,0.0,1776.728125847715,1779.5146371578123,1782.0396386326224,1714.9169766916432,1775.742726603732,1780.4585970734765,1771.2548642724414,1728.465754804286,23.08450255783324,-3.3686146407794846,4.836362917839647,0.10479844985387601
63,0.6400000000000003,-4.492078256986104,1.1627205930531235,1.9757124064666145,0.8601066291351015,0.23674411094175155,0.4052035330828685,0.1999472661213783,6.3357453428247075,-7.221005237528046,4.479778905005475,-2.7979591855035117,4.336125989743434,0.25574153088587076,15.786338376647002,-3.3706570985252426,2.2288268924546273,0.0,0.0,0.0,0.0,0.0,0.0,0.0,0.0,0.0,0.0,0.0,0.0,0.0,0.0,0.0,1776.921808460529,1782.6596192481152,1787.9905407524684,1712.0548358031242,1776.0891040105073,1782.5203968411038,1775.02951560507,1727.2285054739305,23.12117765649454,-3.531458050861628,4.989056788266142,0.07514121379403596
64,0.6500000000000004,-4.427923864651084,1.09036245324297,2.0206181488064474,0.8540154621557101,0.22001333914197116,0.4209891349277006,0.21217886150933,6.495845786552746,-7.248812654788707,4.501100089294404,-3.0836892686419923,4.568451446975776,0.23178973857106513,16.206913005932577,-2.28750757840146,2.062202192005813,0.0,0.0,0.0,0.0,0.0,0.0,0.0,0.0,0.0,0.0,0.0,0.0,0.0,0.0,0.0,1774.8703757991786,1780.7126681956581,1786.050909837937,1709.1180596758454,1773.5990437993946,1780.5616167787944,1773.4705003458994,1723.4991483031058,23.21095609022785,-3.65274031822041,5.077052394479275,0.04409129951372166
65,0.6600000000000004,-4.362145701049838,1.0177816517587384,2.0657298575698255,0.8471318728748604,0.2017606724187445,0.437123270789963,0.22490768585922624,6.660563869907507,-7.265409792145079,4.521003208657409,-3.3057445595728563,4.762059293211819,0.20622327376827643,16.67638198214938,-1.1303451511048834,1.9218874269544273,0.0,0.0,0.0,0.0,0.0,0.0,0.0,0.0,0.0,0.0,0.0,0.0,0.0,0.0,0.0,1776.191537544664,1782.8009343640208,1780.8738504317196,1716.1877955910377,1775.4741610055871,1782.3890859810383,1771.6485796085317,1727.2790089958778,23.105626025524,-3.757098756721786,5.143714360784709,0.017044823085147955
66,0.6700000000000004,-4.294696144001789,0.9450942028928573,2.111033833172055,0.8393984938949679,0.18226106599931405,0.4534074980497919,0.23793426188735683,6.8301303080685765,-7.270012611752492,4.539538692075652,-3.478420526171158,4.905853196779453,0.17915326587284175,17.156373722436058,0.10393643027839516,1.777235138724187,0.0,0.0,0.0,0.0,0.0,0.0,0.0,0.0,0.0,0.0,0.0,0.0,0.0,0.0,0.0,1780.7268887948824,1785.8110056666235,1776.2913305043978,1726.8007616290831,1779.87645486272,1785.6713763422392,1770.0072425010935,1735.019051483908,23.477293427025536,-3.864326883119859,5.261178191491678,-0.009047063062870085
67,0.6800000000000004,-4.225532235661989,0.8724243260254784,2.1565124646788822,0.8307970569131397,0.1617357640598341,0.46964796536684555,0.2510947659255956,7.0031238625465155,-7.261766416777158,4.55573275903655,-3.6177307409655066,5.014301066421803,0.15114485898230026,17.433504128341326,1.4200514713502699,1.5003702980838085,0.0,0.0,0.0,0.0,0.0,0.0,0.0,0.0,0.0,0.0,0.0,0.0,0.0,0.0,0.0,1777.97031795742,1781.2134310115794,1767.123522488605,1728.8455822893377,1776.5775456241902,1780.8152520627013,1762.0924403288402,1735.1009443424828,24.377575896591228,-3.904230864006399,5.316966494877406,-0.03744546809784598
68,0.6900000000000004,-4.154614695392715,0.799903482436421,2.2021447962968765,0.8212806620143236,0.14030658358883347,0.4857582884057702,0.2642934392830069,7.181321303575534,-7.2401027638861,4.570524387270961,-3.7414689653279214,5.129045016993804,0.12256322163186349,18.03207916526617,2.7925997531319524,1.3978710693844931,0.0,0.0,0.0,0.0,0.0,0.0,0.0,0.0,0.0,0.0,0.0,0.0,0.0,0.0,0.0,1789.9257504649302,1795.0837651086215,1779.348857142465,1743.9030677986036,1790.163942180468,1794.7234015542529,1774.906158158103,1751.3477635292018,24.813419040162714,-3.863916065228836,5.328061823467485,-0.07147049652348902
69,0.7000000000000004,-4.081873039291274,0.727670690539716,2.2479259613118527,0.8108053749427969,0.11812152045120981,0.5016764004875957,0.2774215917407562,7.368513231883498,-7.203935521747373,4.58574648538195,-3.8219410744544144,5.214783305095123,0.09348115168265561,19.02720332171981,4.298089459871868,1.476249302186261,0.0,0.0,0.0,0.0,0.0,0.0,0.0,0.0,0.0,0.0,0.0,0.0,0.0,0.0,0.0,1822.2009942285276,1827.6830225256615,1807.9752097491257,1781.6486817381126,1823.5591796617,1828.18783646235,1806.6055042411201,1787.9029133531596,25.14292893055048,-3.82127946609164,5.326740369523978,-0.10713756199226131
70,0.7100000000000004,-4.007221262386633,0.6558767214075669,2.2938559358285335,0.7993854752714511,0.09544940815974082,0.5172976629771949,0.2903022567692578,7.562686927710425,-7.152223871236793,4.599860752128937,-3.8413942045388394,5.26569634887728,0.06372965819976643,19.591132473214756,5.879224663140725,1.2764745392086496,0.0,0.0,0.0,0.0,0.0,0.0,0.0,0.0,0.0,0.0,0.0,0.0,0.0,0.0,0.0,1838.9271435069775,1845.4266211071933,1818.0897399820751,1804.8516760969928,1840.0181289216407,1844.6380484997203,1818.5861243035172,1807.5292670603892,25.474223418022262,-3.784441924665207,5.295038209836124,-0.1373413049661326
71,0.7200000000000004,-3.9306043690984334,0.5846799007185242,2.3399137701525534,0.787064549947758,0.0725275658653851,0.532533333629482,0.3027827521155164,7.761236787987103,-7.084444374076955,4.61110711129571,-3.8310652138037184,5.293052729489452,0.033313289888502115,19.960429058488494,7.500195376408669,0.9405129945605495,0.0,0.0,0.0,0.0,0.0,0.0,0.0,0.0,0.0,0.0,0.0,0.0,0.0,0.0,0.0,1851.803011964215,1858.1348986842188,1825.5059724348407,1821.1773690205687,1852.740304772401,1857.026741906672,1826.9682924171516,1822.4205587974366,25.853051087023985,-3.755640654758846,5.275741230470654,-0.1653331948450991
72,0.7300000000000004,-3.8519854237676636,0.5142428126273205,2.3860656005535015,0.7739108835015529,0.04949690310314301,0.5472900214937779,0.3147787053699536,7.962935515114705,-7.000227901067857,4.618528749039963,-3.807763972489502,5.292896612818221,0.0027693404117377566,20.23173437799919,9.15396913348232,0.5240456560642315,0.0,0.0,0.0,0.0,0.0,0.0,0.0,0.0,0.0,0.0,0.0,0.0,0.0,0.0,0.0,1865.2269269414937,1868.6860204178956,1834.5017046227458,1836.5921719743278,1865.5575586989762,1868.1076332575421,1836.8535287414834,1836.9743696887688,26.220037626075744,-3.662369504650599,5.189584248087137,-0.19266029513024435
73,0.7400000000000004,-3.7713367064588645,0.4447315924456706,2.4322697574393985,0.759989015400629,0.026434622297230547,0.5614952993290666,0.3262528713218429,8.167080934031574,-6.899219744861496,4.621470127495746,-3.7814804162616302,5.285055164427031,-0.027489285046857458,20.441713148699137,10.842477450315968,0.047352492880570196,0.0,0.0,0.0,0.0,0.0,0.0,0.0,0.0,0.0,0.0,0.0,0.0,0.0,0.0,0.0,1879.4337355989137,1881.0687349872508,1847.3562668756824,1851.7253015197264,1879.7597973173395,1880.653252446858,1849.8051507517582,1852.1647663823449,26.51767462076643,-3.48707204484821,5.10370107133457,-0.22484047404822657
74,0.7500000000000004,-3.6886382988100808,0.3763152833136902,2.4784777995033656,0.7453881690058857,0.0034758758544167117,0.5750836235365554,0.33713976587338884,8.372687997154658,-6.7812431963637465,4.619176015184928,-3.71998181470257,5.23947424875344,-0.057247511732038216,20.539141874373,12.536218287658052,-0.5091519334463612,0.0,0.0,0.0,0.0,0.0,0.0,0.0,0.0,0.0,0.0,0.0,0.0,0.0,0.0,0.0,1893.4597305963891,1892.7301115144182,1856.6562621126097,1869.576384292633,1893.5164352398458,1892.573945758056,1861.1404229799311,1867.9389639556014,26.861529073544805,-3.3305524742505392,5.062289998627771,-0.25747209319248954
75,0.7600000000000005,-3.603882644371782,0.3091626457116304,2.524632928904882,0.7302274854354787,-0.01913732041387507,0.5880318535009157,0.3473040767832021,8.578279651976269,-6.646563378699864,4.610738120007832,-3.6007078359939033,5.176267644779111,-0.08664072580780292,20.478048179432662,14.184479369466096,-1.1597212181539973,0.0,0.0,0.0,0.0,0.0,0.0,0.0,0.0,0.0,0.0,0.0,0.0,0.0,0.0,0.0,1903.103354124366,1904.9207415499307,1862.3567781724398,1884.9892311834128,1904.1767397159522,1903.5827652213313,1868.5557006699148,1881.3691718231635,27.220109189864175,-3.2398711372210416,4.975088192626748,-0.2847837413817887
76,0.7700000000000005,-3.517075028950435,0.24343914429506644,2.5706700735184156,0.7145738200408323,-0.04125004295068503,0.6004057135201917,0.356645017967626,8.782973339096213,-6.4954617876314,4.59548110259325,-3.4644192428827907,5.124915650231397,-0.11573698353900773,20.35609689311535,15.809614546098416,-1.8685527414383785,0.0,0.0,0.0,0.0,0.0,0.0,0.0,0.0,0.0,0.0,0.0,0.0,0.0,0.0,0.0,1913.6295838764986,1919.162653128544,1873.2925261319808,1897.8391733712867,1915.660110867992,1917.0466599355022,1879.2424533789372,1894.563009042801,27.65248807814365,-3.180735535665663,4.88194432206117,-0.31021438004054597
77,0.7800000000000005,-3.4282280049882834,0.17930744932362097,2.616517880303793,0.6984954880803665,-0.06285807277681167,0.6122046049812113,0.3651827452905664,8.986026367862268,-6.328272361306077,4.572767357228921,-3.351936599213106,5.055672801601192,-0.1442419740447761,20.15465798857896,17.39615190494792,-2.6404971346210004,0.0,0.0,0.0,0.0,0.0,0.0,0.0,0.0,0.0,0.0,0.0,0.0,0.0,0.0,0.0,1928.1874087236142,1929.4338460219342,1886.1759057440368,1910.6630766751557,1928.832681577806,1928.730674629386,1891.9283369078382,1907.6316695123692,27.97629415910816,-3.036956133927962,4.7534278908801415,-0.3348992884472893
78,0.7900000000000005,-3.337360754681444,0.11692731919148161,2.6620991511098446,0.6820850839220615,-0.08401134906961981,0.6233522600061767,0.37300669091013483,9.18694436138348,-6.145176197482238,4.5421025050744515,-3.265221542633473,4.975918552748569,-0.17197936888355886,19.914902985536997,18.97267117928436,-3.45492532334557,0.0,0.0,0.0,0.0,0.0,0.0,0.0,0.0,0.0,0.0,0.0,0.0,0.0,0.0,0.0,1945.5592024501252,1941.37541502322,1902.3698223322947,1925.276498918679,1945.354097717522,1941.796802842987,1907.7589105478264,1922.8043469132435,28.217309930377724,-2.815369017172664,4.638526657385697,-0.36241406595061637
79,0.8000000000000005,-3.244500458220514,0.05645448725205532,2.707331304532132,0.6654532573805687,-0.10465263945755927,0.6338178353074954,0.380124636063328,9.384374418144013,-5.947001005272905,4.502835357747987,-3.1471749004852514,4.872954939663473,-0.19888780911002446,19.507259428028334,20.43342200451903,-4.3395260414174075,0.0,0.0,0.0,0.0,0.0,0.0,0.0,0.0,0.0,0.0,0.0,0.0,0.0,0.0,0.0,1957.4078291281182,1951.7463193872181,1911.5253676320447,1939.6260688979562,1957.267016433923,1951.7895114469343,1918.2578029866663,1935.455467827402,28.54362826141552,-2.6305001220192348,4.606470995174188,-0.38809594427968136
80,0.8100000000000005,-3.1496896751752312,-0.0019664369709913023,2.7521252664323095,0.6487245163249132,-0.12460692247565425,0.6436629171519547,0.38642938018943374,9.576833816532064,-5.735012448669905,4.454382898507223,-2.976695129319287,4.765370784769267,-0.22506645608130374,18.964132037075032,21.75964922416096,-5.276706836659706,0.0,0.0,0.0,0.0,0.0,0.0,0.0,0.0,0.0,0.0,0.0,0.0,0.0,0.0,0.0,1963.8538231425366,1962.338191590145,1916.6138040133546,1951.377447686617,1964.965745970685,1960.9089343441249,1924.5643590171005,1945.6796725930712,28.88231269026782,-2.5527465990709923,4.511492572842656,-0.4103323391643817
81,0.8200000000000005,-3.0529810002017874,-0.0582013876869076,2.7963873756098545,0.6319254473549225,-0.14381336335455525,0.6530294053705764,0.3918424954331563,9.763942007694574,-5.509886206097524,4.396416974374981,-2.8009904048397454,4.695220775653386,-0.25047490169672987,18.420327580281892,23.044691553682384,-6.24171284467856,0.0,0.0,0.0,0.0,0.0,0.0,0.0,0.0,0.0,0.0,0.0,0.0,0.0,0.0,0.0,1971.779462406801,1976.4623117504973,1929.3539855215674,1961.0685253905276,1974.3300508850582,1973.9038429634265,1936.0939038297954,1956.7495265731284,29.312742252013066,-2.5309792764456023,4.368025216981165,-0.43108186385765673
82,0.8300000000000005,-2.9544292178861906,-0.112122046199811,2.8400207169312592,0.6150605739227337,-0.16236986698080444,0.6619384753956322,0.39645172656122907,9.945379047249785,-5.272282425594184,4.3285717612325625,-2.675776817696906,4.611216680118265,-0.275038530200993,17.83209775828709,24.255651440007853,-7.243038345804642,0.0,0.0,0.0,0.0,0.0,0.0,0.0,0.0,0.0,0.0,0.0,0.0,0.0,0.0,0.0,1985.8024222640283,1984.951523925187,1943.3074335398624,1970.9697342488857,1986.3422812834403,1984.4518847838156,1949.1944762559133,1967.4937273504868,29.570301207836906,-2.439351976187722,4.236700094388943,-0.4508293672472588
83,0.8400000000000005,-2.8540919890411436,-0.1636057074045087,2.8829250411133684,0.5982103847083741,-0.1803911501590411,0.6702513094894443,0.40045792625323684,10.121018030644448,-5.022523081744247,4.250583857109866,-2.6011322155723624,4.4989438788369025,-0.29876070278941047,17.242190347934283,25.452799464537712,-8.26351756108501,0.0,0.0,0.0,0.0,0.0,0.0,0.0,0.0,0.0,0.0,0.0,0.0,0.0,0.0,0.0,2004.936182566043,1993.954303518549,1959.4204223223849,1984.698551032317,2003.4853148687203,1995.7926131717454,1965.049594846331,1981.7248625687496,29.747476851879096,-2.290983774151837,4.086254413464767,-0.4736100461119861
84,0.8500000000000005,-2.7520321427589027,-0.21253668289880454,2.9249978979658104,0.5814660365781479,-0.19789418494997435,0.6779032472789751,0.40395832359007783,10.28965942405675,-4.762054562979088,4.162257329276548,-2.5148733353545376,4.378796762893826,-0.32166001051740034,16.49201976919734,26.4532543351903,-9.300076331858698,0.0,0.0,0.0,0.0,0.0,0.0,0.0,0.0,0.0,0.0,0.0,0.0,0.0,0.0,0.0,2014.6499075833376,2001.4346449787718,1968.2139153479657,1994.6533019064939,2013.317792548144,2002.6330793136658,1974.0570396089804,1990.881508542865,30.063466796025306,-2.131090611628987,4.038904676144959,-0.49254083550286376
85,0.8600000000000005,-2.6483258297614003,-0.2588164938241525,2.9661356030290977,0.5649316776871371,-0.2147917520629473,0.6849359734548317,0.40691450583483546,10.450178189189693,-4.492535599443881,4.063563208417544,-2.3968834691235408,4.244085058349944,-0.3439361302488075,15.652387202194973,27.29887642083284,-10.332700047716692,0.0,0.0,0.0,0.0,0.0,0.0,0.0,0.0,0.0,0.0,0.0,0.0,0.0,0.0,0.0,2020.2101688015548,2008.0527881265325,1971.8391862939939,2003.2505558722023,2019.3256528370869,2008.5730972606837,1978.7820092008758,1998.0721619400729,30.36491436532071,-2.0652256284835104,3.92661570156327,-0.5093769489902441
86,0.8700000000000006,-2.5430546439136554,-0.30235762430319235,3.006234668787147,0.5486279504831272,-0.23104463586834145,0.6914791881656254,0.40924599022953984,10.602707628994288,-4.214320627990852,3.9545249762011885,-2.2586517087372466,4.152973400984098,-0.36540874437379106,14.865045948754485,28.155032739960006,-11.368028159492116,0.0,0.0,0.0,0.0,0.0,0.0,0.0,0.0,0.0,0.0,0.0,0.0,0.0,0.0,0.0,2026.4786765336637,2021.9136288687391,1983.8767788503683,2012.6845862527289,2027.7206284596805,2020.7529417243638,1989.9991963628977,2008.704181602116,30.758815544687657,-2.1295644927908013,3.6831261749042365,-0.5263256122898707
87,0.8800000000000006,-2.43629813724955,-0.34307551800811165,3.0451913642415516,0.5325317727929072,-0.24671653615383038,0.6975846660170114,0.41099452002701187,10.747199158513094,-3.928038072232006,3.8350868978645414,-2.1586520365057913,4.049370466591644,-0.3859853492413066,14.0510832375913,28.92198086841713,-12.406651152572667,0.0,0.0,0.0,0.0,0.0,0.0,0.0,0.0,0.0,0.0,0.0,0.0,0.0,0.0,0.0,2037.8012316974562,2029.8629322195634,1995.7683337701917,2021.8714147606665,2037.4433080687445,2030.301407687293,2001.3372830381038,2018.3585726784615,30.94427923590717,-2.1759802923746387,3.478354338627147,-0.5419912137810602
88,0.8900000000000006,-2.328136691694886,-0.38089159976801695,3.082901558705487,0.5167456847703447,-0.2618928586929176,0.7030462010270031,0.4124464414422531,10.883714942034565,-3.6339702714117323,3.7052425037457453,-2.1416300544403883,3.877858436974678,-0.4057911524692132,13.253385261904782,29.688690231504555,-13.43816098356454,0.0,0.0,0.0,0.0,0.0,0.0,0.0,0.0,0.0,0.0,0.0,0.0,0.0,0.0,0.0,2058.774318562962,2033.8781015033708,2009.037504589935,2035.2197535852372,2054.457340609543,2038.701711288694,2014.7627592248225,2031.7923942930588,31.04389979438835,-2.35318751660707,3.084669103486897,-0.5627147334617965
89,0.9000000000000006,-2.2186535390075472,-0.41573450910662496,3.119263016282048,0.5013744844060296,-0.27663424525809427,0.7076778899313942,0.41387090359111006,11.011346041288459,-3.3337492865394163,3.5654478310553515,-2.1532641779898323,3.6934224922937138,-0.42494480422644004,12.326080892599123,30.2306938212471,-14.404814188753168,0.0,0.0,0.0,0.0,0.0,0.0,0.0,0.0,0.0,0.0,0.0,0.0,0.0,0.0,0.0,2068.811355333387,2035.9336727154714,2016.6322998917688,2041.3277751099367,2063.6260304046355,2041.0134825761484,2021.473456152841,2038.08325735203,31.18486964824108,-2.304659243326512,2.822853626466111,-0.576133710333701
90,0.9100000000000006,-2.107942359714998,-0.44755163822844873,3.1541797811722483,0.4865725365572548,-0.29096567091398307,0.7112468165560564,0.41558887251307663,11.129214565265872,-3.029013169347046,3.416454709013997,-2.2493465646071167,3.406811882181428,-0.44381023748264975,11.32703481682995,30.638981793512432,-15.282137790594064,0.0,0.0,0.0,0.0,0.0,0.0,0.0,0.0,0.0,0.0,0.0,0.0,0.0,0.0,0.0,2082.5668611240067,2028.939792097339,2017.6397985163367,2046.8968090265096,2072.717926428151,2038.7214778217185,2023.3707687103338,2042.4253389646092,31.15314192988218,-2.0343794731207017,2.5443232953294874,-0.5857789774086214
91,0.9200000000000006,-1.9961023975565666,-0.4763008789693999,3.1875643963898783,0.4725171650398031,-0.3047959037326838,0.7136993668465306,0.4176843300548701,11.237101391891013,-2.720209804951088,3.2591642839229684,-2.2668418656270886,3.1373465774085054,-0.4621330001065876,10.328616224120069,31.03088071050575,-16.072238903458658,0.0,0.0,0.0,0.0,0.0,0.0,0.0,0.0,0.0,0.0,0.0,0.0,0.0,0.0,0.0,2084.52225322985,2035.376174979445,2019.9552642131503,2054.6376285585134,2077.6972639963687,2042.0126187221526,2026.812909265432,2049.238855852767,30.715084445496892,-1.8860674136712583,2.1479780554631676,-0.5965354765930904
92,0.9300000000000006,-1.883235354012428,-0.5019477436745157,3.219339205305788,0.45938567894332144,-0.31786958105488505,0.7153321135948199,0.41979006024648013,11.334577566841137,-2.4088459992857993,3.0946818761012898,-2.139708991066145,2.8621750947692965,-0.47924297050901593,9.285388596861566,31.22037016681256,-16.745106769117335,0.0,0.0,0.0,0.0,0.0,0.0,0.0,0.0,0.0,0.0,0.0,0.0,0.0,0.0,0.0,2075.7777173636164,2041.3162215440025,2012.2334439536637,2062.0037389244394,2072.2106122338164,2044.0521191857058,2022.599842796086,2052.7517067486006,30.121106004405387,-1.7382078883966068,1.8484367288452055,-0.6050018979246309
93,0.9400000000000006,-1.7694489243694507,-0.5244829700760668,3.249439826845484,0.447437701670346,-0.32996260391084714,0.7162759229705833,0.42174990849669547,11.420875826710862,-2.098499511051296,2.9246179365251836,-2.009431110544451,2.5273550943856593,-0.4949650161068689,8.159630406572305,30.99589377801948,-17.234283387094873,0.0,0.0,0.0,0.0,0.0,0.0,0.0,0.0,0.0,0.0,0.0,0.0,0.0,0.0,0.0,2063.0003775346463,2025.555522549354,1992.8102852324803,2054.572087416927,2056.8227855944347,2029.7254296504077,2004.188547164358,2043.0177197529404,30.457785959141976,-1.6654492367789908,1.4440769685641506,-0.6195716429997349
94,0.9500000000000006,-1.654855677432048,-0.5439315123626782,3.277818742694805,0.4367900999700987,-0.34103239868010377,0.7165638206959357,0.4236125617687097,11.496009373555662,-1.791820797060109,2.750578418902335,-1.8707395196029095,2.2125162114882593,-0.5093017173127348,7.067844233013432,30.56441139679511,-17.574282927292906,0.0,0.0,0.0,0.0,0.0,0.0,0.0,0.0,0.0,0.0,0.0,0.0,0.0,0.0,0.0,2042.0773873477826,2006.5635603356232,1973.484910860539,2036.006841066131,2036.3083349030824,2009.7679515393986,1983.5389476046082,2025.0870423713916,30.997504827653398,-1.4192493620624227,1.2062083455055355,-0.6272800710973656
95,0.9600000000000006,-1.5395554453968545,-0.5603130055084177,3.304435725088251,0.42749402296807804,-0.35109902593076886,0.7161900862226294,0.42549981752458665,11.562824996413212,-1.4839972815911848,2.5720617175176352,-1.7670314146125239,1.8524787887266276,-0.5228244667029108,6.346352225367724,30.877738784877096,-18.040105665143358,0.0,0.0,0.0,0.0,0.0,0.0,0.0,0.0,0.0,0.0,0.0,0.0,0.0,0.0,0.0,2055.439923236634,2012.565145910235,1982.1916355709309,2046.739680029632,2048.9671608930544,2019.622494990034,1994.1856970306414,2036.790955552684,31.254672091175543,-1.0573507016202603,0.9950432118343828,-0.6339327032725863
96,0.9700000000000006,-1.4236198820989716,-0.5735945976784417,3.3292439549338004,0.41958178144677993,-0.3601481045239022,0.7152743859469671,0.42734883209618857,11.623282775664157,-1.1715795595569076,2.388866634982473,-1.5885195487259467,1.5543338928412325,-0.5354101682444911,5.75936862755988,31.380880425412315,-18.491056652796267,0.0,0.0,0.0,0.0,0.0,0.0,0.0,0.0,0.0,0.0,0.0,0.0,0.0,0.0,0.0,2065.9939035571465,2036.0318760221587,2000.744382634713,2064.2542372180087,2063.785423230924,2039.4606547398782,2012.8394751401088,2054.9835824286,31.45250815997855,-0.8118436964969162,0.6787957654894974,-0.6423425726768824
97,0.9800000000000006,-1.307109958870487,-0.5837341888485776,3.3522009119754728,0.4130430498655518,-0.36812620914014627,0.7141428799356281,0.4288105410774269,11.677728865258514,-0.8559974869469037,2.20200887485289,-1.3193690438584909,1.295306022493162,-0.5469142733259668,5.1792373791546,31.617490980109686,-18.81250213649599,0.0,0.0,0.0,0.0,0.0,0.0,0.0,0.0,0.0,0.0,0.0,0.0,0.0,0.0,0.0,2065.9900052220014,2052.8463321171384,2008.4673142619747,2075.271750361494,2066.563573281219,2052.6402473856374,2021.3043532047952,2064.435602323383,31.49167126914935,-0.6100692464577036,0.4466404390388685,-0.6469094139081306
98,0.9900000000000007,-1.1900832256245044,-0.5907086928585003,3.373274773915784,0.40794600453052005,-0.3749854219664705,0.7129165815840324,0.42978592159673,11.726790202454174,-0.5387092550038776,2.0123695159929738,-1.0676314912875298,1.0058018839681946,-0.5575745732554768,4.682934079141887,31.756644655218214,-19.059049894771363,0.0,0.0,0.0,0.0,0.0,0.0,0.0,0.0,0.0,0.0,0.0,0.0,0.0,0.0,0.0,2072.8816398174863,2058.609223197934,2013.6178509926992,2083.8186955099695,2071.4655890594086,2060.223029162642,2026.8630362072859,2072.3081170115756,31.35649171942458,-0.5660288822875749,0.1364470536010547,-0.6600564502221745
99,1.0000000000000007,-1.072589839489732,-0.5945079098422773,3.392442374903416,0.40427177165074935,-0.3807802978743255,0.7115811510120456,0.43037537676019144,11.771173558823287,-0.22118921463045396,1.820922188202637,-0.8414147483890316,0.745577424011002,-0.567320641506905,4.250534999039601,31.73036265254406,-19.201098511312907,0.0,0.0,0.0,0.0,0.0,0.0,0.0,0.0,0.0,0.0,0.0,0.0,0.0,0.0,0.0,2073.5678354654915,2059.9885291408264,2018.463828976467,2083.237615429841,2072.0116121421015,2061.242690002862,2029.5568621949512,2073.2002376477776,31.521785434482588,-0.44221977158859455,0.042134046752664814,-0.6646584148394233
100,1.0100000000000007,-0.9546736526054038,-0.5951382536352043,3.409691087528686,0.4019125132448579,-0.3856466787370211,0.7100259606508023,0.43082027120159083,11.811436314993234,0.09481222294834687,1.6287784864183918,-0.708665289522658,0.4589777156928633,-0.5768463949233376,3.8654021823028017,31.5308387473409,-19.225602695638553,0.0,0.0,0.0,0.0,0.0,0.0,0.0,0.0,0.0,0.0,0.0,0.0,0.0,0.0,0.0,2075.107753468885,2050.7203043991462,2017.230015802458,2075.7059821057137,2070.2838513284755,2054.8212033776585,2026.5682786849352,2066.6570055511697,31.485860903987867,-0.23579993308301853,0.08852289215868606,-0.6667717296773746
101,1.0200000000000007,-0.836370752690603,-0.5926113173912873,3.4250160145385733,0.4006624671045358,-0.3897574034746768,0.7082423101438403,0.4312210384622964,11.848728745663509,0.41062719087232413,1.4361388859286768,-0.5763990889236228,0.2679275730434906,-0.5859589727545017,3.6167161417886007,31.57788979925341,-19.273959175822863,0.0,0.0,0.0,0.0,0.0,0.0,0.0,0.0,0.0,0.0,0.0,0.0,0.0,0.0,0.0,2075.277229075191,2059.676147164686,2029.3905244897094,2074.5166598395817,2073.93543649981,2061.0986490030796,2036.311540735171,2068.7026584222467,31.567725591359096,-0.1313330057495657,0.06374968400558115,-0.6720756338690768
102,1.0300000000000007,-0.7177073463299752,-0.5869287156905139,3.438414371983665,0.4001926860149729,-0.3932999799952449,0.7064876736636732,0.4313190312948788,11.883582142981053,0.7256863534797455,1.2435845721740488,-0.4059633266384982,0.18866370326092402,-0.5943300951388802,3.390024623454835,31.452044038845717,-19.242253011439114,0.0,0.0,0.0,0.0,0.0,0.0,0.0,0.0,0.0,0.0,0.0,0.0,0.0,0.0,0.0,2064.1615574269404,2067.8397340804445,2035.4913566793816,2067.999865094894,2066.671172673382,2064.855777788358,2040.2160592190937,2063.696704019162,31.946718672232063,-0.10931350080260638,0.04928665971993529,-0.6739593267795873
103,1.0400000000000007,-0.5987049366897301,-0.5780993937463361,3.449887960887811,0.4002678896626299,-0.39641949125628767,0.7048983894311641,0.43099357771837116,11.916654087048476,1.0400860982542637,1.0511467463773856,-0.2718377833873258,0.130782123413609,-0.6022581124240043,3.241749175712627,31.405626364496175,-19.237063349606842,0.0,0.0,0.0,0.0,0.0,0.0,0.0,0.0,0.0,0.0,0.0,0.0,0.0,0.0,0.0,2064.7198060472288,2071.7456421845072,2042.0800812275377,2067.048616540834,2066.461223858223,2069.8991384958263,2046.146629084995,2063.6644381491383,32.023525178811795,-0.19720906896931129,-0.11617261647690236,-0.6861588237861727
104,1.0500000000000007,-0.47937654109707317,-0.5661209342853591,3.4594349321203013,0.4007257000336006,-0.39925201945627453,0.7034192138814479,0.4303697803460105,11.94893397016619,1.3558846390677661,0.8581371036691716,-0.19404026471178737,0.09349664992942378,-0.6096469537373842,3.195170047117557,31.613345660457924,-19.316804450818182,0.0,0.0,0.0,0.0,0.0,0.0,0.0,0.0,0.0,0.0,0.0,0.0,0.0,0.0,0.0,2077.453065745689,2081.634885816571,2058.9423998528964,2075.091069148129,2078.515990740632,2081.4072052914776,2061.7669239879815,2073.861866326321,32.250523039627595,-0.21234102903078061,-0.13729381115487868,-0.6890511323489444
105,1.0600000000000007,-0.3597289427516017,-0.5509813867290437,3.4670503792815914,0.40150746219481204,-0.40188852453423246,0.7018515735188504,0.42974613482693846,11.980437338184888,1.6719353104733015,0.6649938855257301,-0.19931888125002234,-0.007568238380001047,-0.6171673892307048,3.1083886735121524,31.571052304243175,-19.29758360483591,0.0,0.0,0.0,0.0,0.0,0.0,0.0,0.0,0.0,0.0,0.0,0.0,0.0,0.0,0.0,2088.6328034821468,2077.0787094658117,2062.23414283891,2076.9084261483404,2085.380874674171,2080.3865859815423,2064.7300878073647,2075.0183397655624,32.14602883493548,-0.13444476928560833,0.08280061812995448,-0.6875100192023467
106,1.0700000000000007,-0.23976968639187662,-0.5326799505276114,3.4727347811094824,0.402568366725753,-0.4043880131669082,0.7000892908725578,0.42928315797878625,12.011318655774037,1.988444836644194,0.4719103850844901,-0.20575754301577753,-0.06617416842189358,-0.6245021238014868,3.0567490828374844,31.651234296236062,-19.29245476550695,0.0,0.0,0.0,0.0,0.0,0.0,0.0,0.0,0.0,0.0,0.0,0.0,0.0,0.0,0.0,2094.722785345019,2084.476471484675,2072.6154643569507,2081.630483901705,2093.346345143652,2086.23397738315,2073.995682046817,2081.333503967254,31.97047256984545,-0.08026440601864024,0.2860426018836527,-0.6901613495628457
107,1.0800000000000007,-0.11950604700387653,-0.5112176206365119,3.4764915141223245,0.40363727830979723,-0.4068968936125759,0.6983600512045662,0.4287249752564584,12.041224163542068,2.3036950650848413,0.2795879118037623,-0.16839072569720176,0.010051946040416173,-0.6310589546171731,2.943177163995614,31.446531360544316,-19.1966772891351,0.0,0.0,0.0,0.0,0.0,0.0,0.0,0.0,0.0,0.0,0.0,0.0,0.0,0.0,0.0,2080.744554981549,2091.1737251994637,2077.2252762234643,2072.786358853034,2084.118262886217,2087.21067425531,2075.3800954514622,2074.7060568474926,31.77391202646669,-0.0037614812805594477,0.27362669093581427,-0.6896792755838351
108,1.0900000000000007,0.0010505053050912753,-0.4866154836414613,3.4783299444222235,0.40442805370753193,-0.4095684628787429,0.6969111610799333,0.42779253985045224,12.069879242398706,2.61627851852555,0.08822406965975055,-0.12429163940566372,0.14228590352671017,-0.6370984645309296,2.8141396694092435,31.154515662569437,-19.111846028795746,0.0,0.0,0.0,0.0,0.0,0.0,0.0,0.0,0.0,0.0,0.0,0.0,0.0,0.0,0.0,2069.0484079174817,2091.053858478626,2076.2110515877193,2063.3488629919616,2073.45797708437,2085.8678184600926,2073.396663730976,2065.9178330804175,31.57882657680592,0.018343597481095805,0.07074804827363662,-0.7015821199189172
109,1.1000000000000008,0.1218870839269504,-0.45890296479813125,3.478258385938252,0.4050009248400351,-0.4123535826931714,0.6957507945131189,0.4264617282396932,12.097235401998455,2.9257208481479213,-0.10245642387358281,-0.06363084297861504,0.2009847802216322,-0.6425772709982568,2.6873785161516395,30.829648747829896,-19.055368600482527,0.0,0.0,0.0,0.0,0.0,0.0,0.0,0.0,0.0,0.0,0.0,0.0,0.0,0.0,0.0,2065.0857952049882,2081.2838894359234,2065.9208220267374,2062.073222078188,2066.9272658189134,2078.5313700988395,2066.1130343812006,2061.529755423243,31.83879932818107,-0.07594784842662267,0.0036069289492032947,-0.7050008716520069
110,1.1100000000000008,0.24299118064634492,-0.42811245774997553,3.4762825736213547,0.40570090791148516,-0.415042009077359,0.6946667915264388,0.4249528830013856,12.123412531143778,3.231870429381252,-0.29263126773896886,-0.02380540441930646,0.13472684461374737,-0.6483193958137409,2.5778458851846153,30.49947224154126,-19.00340431379577,0.0,0.0,0.0,0.0,0.0,0.0,0.0,0.0,0.0,0.0,0.0,0.0,0.0,0.0,0.0,2068.3280240583385,2066.4486474814926,2051.2651934789283,2062.8676443805607,2066.10821780485,2067.8405296405826,2054.4393084528056,2059.286549650189,31.36604718242329,-0.0821791270210368,0.2816800613439721,-0.7019847969018057
111,1.1200000000000008,0.36435451797726204,-0.39426535346783403,3.4724040953617035,0.4066413045306696,-0.4176007830959672,0.6934400644809858,0.42354847701276954,12.14923029477811,3.5376299188147615,-0.4831530598520258,-0.05246001400124161,0.0739188363139351,-0.6540639099070233,2.568731604862151,30.570788646316238,-19.065714393185218,0.0,0.0,0.0,0.0,0.0,0.0,0.0,0.0,0.0,0.0,0.0,0.0,0.0,0.0,0.0,2080.2683885300735,2069.5938930068633,2061.2809178668585,2068.8043600851265,2078.0077802508504,2072.398536240236,2062.5944028053214,2068.551437787282,30.521214405187983,-0.01186503880747787,0.6492352424908422,-0.7036223129820193
112,1.1300000000000008,0.48597142661291737,-0.3573749306045999,3.4666234944081236,0.4074663474515786,-0.4202639850997255,0.6921983572450056,0.42215020164614725,12.173908337827088,3.8396270876179,-0.6727611497038898,-0.06585008258974519,0.17916344700093215,-0.6591361605460028,2.4125622698534244,30.025939424208836,-18.92413379896207,0.0,0.0,0.0,0.0,0.0,0.0,0.0,0.0,0.0,0.0,0.0,0.0,0.0,0.0,0.0,2055.48431418304,2064.300807814457,2058.0211298034333,2044.8425357394444,2057.855554105541,2060.232814192037,2053.458312942263,2048.302150853854,30.52336684612959,0.038189203430946554,0.6727230330213505,-0.7013234061062044
113,1.1400000000000008,0.6078246866184417,-0.3175025061952598,3.4589567386721587,0.40773343942791,-0.42327527668099435,0.6912993580929293,0.4203530421243772,12.196366581912137,4.133498666798076,-0.8602923802757801,-0.03605039238315263,0.4054258049670998,-0.6636793298941347,2.1645853996421494,29.11315814459048,-18.708881913389487,0.0,0.0,0.0,0.0,0.0,0.0,0.0,0.0,0.0,0.0,0.0,0.0,0.0,0.0,0.0,2016.5230534888278,2048.1434157969843,2038.6341255849618,2010.2367855049147,2022.463660200924,2039.4133865007016,2031.6921165231888,2014.759165420784,30.800310034474084,0.035591219419459585,0.5686182531427055,-0.7131761730323076
114,1.1500000000000008,0.729894738761187,-0.27471622142441054,3.4494171532389086,0.4074731280245096,-0.4265919833677328,0.6908077952334755,0.4180544458667676,12.21749925156422,4.423436233269791,-1.0477708078075516,0.0023299206223627005,0.5264524141071139,-0.6676590531398234,2.0753671067641477,28.910199499748934,-18.790933874177405,0.0,0.0,0.0,0.0,0.0,0.0,0.0,0.0,0.0,0.0,0.0,0.0,0.0,0.0,0.0,2018.758200604121,2042.3641610480793,2032.26857248605,2015.4300209460675,2021.9664317840804,2038.8439120820026,2030.8927418733144,2016.927030180451,31.109610570619296,-0.1192729376994931,0.3754170316922055,-0.7174252030648697
115,1.1600000000000008,0.8521735429564653,-0.22903269540043736,3.437995254474792,0.4070379204688525,-0.43000146388398736,0.6904907168788934,0.4155014347292821,12.238212266041351,4.713335407228152,-1.2369298996508826,0.0191623221224013,0.5422828484576699,-0.6719894004006828,2.051721391671535,28.97792471228744,-18.99246708419966,0.0,0.0,0.0,0.0,0.0,0.0,0.0,0.0,0.0,0.0,0.0,0.0,0.0,0.0,0.0,2036.7912132452677,2043.0555803809943,2033.33277472058,2030.4285526941537,2036.8453604383374,2043.7578504379114,2034.7851942930502,2029.989904893958,30.7838239013747,-0.2398590140734139,0.6292329074286374,-0.7149130097619855
116,1.1700000000000008,0.9746585889517438,-0.18044556048652352,3.4246712345143413,0.406663978758861,-0.4334045350262803,0.6900182227100856,0.4131098760943401,12.258752433405888,5.00422596926836,-1.4281982568671077,-0.0518565551839947,0.46036026486360576,-0.6765091692749304,2.0333722763741235,29.09142750930993,-19.200133919276663,0.0,0.0,0.0,0.0,0.0,0.0,0.0,0.0,0.0,0.0,0.0,0.0,0.0,0.0,0.0,2058.2132362397847,2041.7796467199591,2040.368392787942,2043.6675188727902,2053.9646430585753,2046.9465732029887,2041.9889595780078,2043.2774390536906,30.228273768435233,-0.17204132338061523,1.1374680565161135,-0.7170621400121759
117,1.1800000000000008,1.0973442653914887,-0.12895960274627305,3.4094301891730865,0.40610290185012615,-0.43698825839441346,0.6893618218180552,0.41097685306354687,12.278121456276173,5.2923071806131485,-1.6200400951932123,-0.14393697961991825,0.5480417169103464,-0.6806402723863568,1.8714110748216939,28.6640583158011,-19.20536487069202,0.0,0.0,0.0,0.0,0.0,0.0,0.0,0.0,0.0,0.0,0.0,0.0,0.0,0.0,0.0,2041.0367679371925,2038.3756601698854,2042.3749516336368,2023.2672526212762,2041.268784660992,2036.9263746818299,2036.7973056673693,2028.207613526394,30.00673448938554,-0.08935832620230319,1.113794903626697,-0.7122556886401671
118,1.1900000000000008,1.2202134446735453,-0.07462115370352074,3.392272449282225,0.40478434325677315,-0.4410624756047967,0.6889684736231382,0.40857798572727105,12.295339078311232,5.574388873301675,-1.8114988814993596,-0.15143748586503863,0.8342680868306721,-0.6843804883775314,1.6323421250401537,28.000024374930987,-19.170975402102997,0.0,0.0,0.0,0.0,0.0,0.0,0.0,0.0,0.0,0.0,0.0,0.0,0.0,0.0,0.0,2005.2085358828324,2037.5348482564038,2035.494069325902,1994.179327037996,2012.9844744823097,2028.0290872664789,2026.308029283167,2001.974901629248,29.93691386987155,-0.016122432434084316,1.052804319816502,-0.722833188627304
119,1.2000000000000008,1.3432443515715538,-0.017487070791241698,3.3731975132466046,0.4027843301484584,-0.44552756960087847,0.6889932886459341,0.4056577576150278,12.310540985304593,5.8518129131983585,-2.0037166209808124,-0.11619052375458824,0.9587623244705828,-0.6875111634821832,1.4448681736940472,27.60203022413421,-19.29521819072111,0.0,0.0,0.0,0.0,0.0,0.0,0.0,0.0,0.0,0.0,0.0,0.0,0.0,0.0,0.0,2001.0649414929621,2024.5739950353739,2018.1818405409051,1997.4142561902997,2003.985573136617,2020.6900108567327,2016.7263042085658,1998.2991140950267,30.35988355427835,-0.19680969353552058,0.6423834615535953,-0.7286475239828205
120,1.2100000000000009,1.4664189469780757,0.04240536615155254,3.352192062562956,0.4005906896044876,-0.45006632903862753,0.6892458037406233,0.40237746071796476,12.324138195682307,6.126248898434479,-2.1977175324153784,-0.06334223559846469,1.000357226098588,-0.6909039073569945,1.29783971617492,27.336758912434256,-19.49688459128529,0.0,0.0,0.0,0.0,0.0,0.0,0.0,0.0,0.0,0.0,0.0,0.0,0.0,0.0,0.0,2004.9883987317949,2016.780171103588,2006.3606151181946,2002.7834010514266,2006.1278398552436,2015.294404447735,2007.5991208875403,2001.3783872236381,29.988726251624133,-0.4368207048998217,0.7017308367230364,-0.7298114372556533
121,1.2200000000000009,1.589724940529725,0.10504116730023198,3.3292317206290067,0.3986112931824963,-0.45447998406890566,0.689300240641095,0.39927704577177237,12.336958502852852,6.4011317128659195,-2.394910048923795,-0.13248571208137513,0.8236367290622691,-0.6945711941396566,1.2447783260753909,27.50433604805025,-19.849088579074525,0.0,0.0,0.0,0.0,0.0,0.0,0.0,0.0,0.0,0.0,0.0,0.0,0.0,0.0,0.0,2037.9420243688253,2010.644141735689,2010.1579469657793,2025.1628100644414,2030.8340436504066,2019.2190857897901,2015.0521893527953,2021.8170267424046,29.3102494180256,-0.4001558996756786,1.193941923578005,-0.7336506514089544
122,1.2300000000000009,1.713152372373612,0.17041566560334243,3.3042902273103816,0.3967657105542983,-0.4588876170021186,0.6888740427152492,0.39680181345806503,12.348188177145776,6.673043684447586,-2.593494516897029,-0.28411112860679183,0.7733115767473572,-0.6983055216135359,1.0361908103426742,27.034231643098927,-19.900509736253902,0.0,0.0,0.0,0.0,0.0,0.0,0.0,0.0,0.0,0.0,0.0,0.0,0.0,0.0,0.0,2026.9634795383615,1999.0441342305019,2009.4461104467227,2003.98422854046,2021.7881181946482,2002.9894033702085,2005.9777196220177,2006.5623084425024,29.084650545938686,-0.3142174656091603,1.00656221247709,-0.7216741293935393
123,1.2400000000000009,1.8366792160384187,0.23847696313025724,3.27736429978617,0.3944088971828637,-0.4636504170304237,0.6883856955096334,0.3944553800219106,12.356708652041586,6.938073321468758,-2.791641332072376,-0.333571034475739,0.9834385883621787,-0.7020044106508169,0.7377841866809121,26.267641378079354,-19.835078384364824,0.0,0.0,0.0,0.0,0.0,0.0,0.0,0.0,0.0,0.0,0.0,0.0,0.0,0.0,0.0,1983.768233607851,1997.6878387864544,2001.4982772005174,1967.0409326901213,1988.9011058819947,1990.298881788991,1992.4316866718873,1974.246986250483,29.072342315007017,-0.17414740602892742,0.9413968954262906,-0.7270580249808378
124,1.2500000000000009,1.9602782321876595,0.3091610905406772,3.248454933887787,0.3916418386898149,-0.46864880706941636,0.6880401302776811,0.3919001721708551,12.362719568941424,7.198143095728391,-2.990442042169272,-0.3181130681913075,0.9855197183749641,-0.7046798841470631,0.5058003222373486,25.869567567452734,-19.94793474812706,0.0,0.0,0.0,0.0,0.0,0.0,0.0,0.0,0.0,0.0,0.0,0.0,0.0,0.0,0.0,1979.3254283519843,1982.774369598736,1980.8491507249144,1973.9744364445835,1978.7671244683243,1982.2438070479789,1982.1834504316414,1972.0800115645789,29.630818392399302,-0.38616676277478545,0.1954845040288672,-0.7345708422373152
125,1.260000000000001,2.083927153142536,0.382431883083229,3.2175494758287466,0.389004784904859,-0.47352754536549513,0.6877403722625867,0.3891787782772488,12.366775364656172,7.455685439415534,-3.190978292671844,-0.24165980779564003,0.9651249093631497,-0.7070503902803597,0.32977531826894335,25.667136075463226,-20.14315203622985,0.0,0.0,0.0,0.0,0.0,0.0,0.0,0.0,0.0,0.0,0.0,0.0,0.0,0.0,0.0,1979.1694135230446,1981.761332176577,1971.8965384243054,1980.9038121282283,1979.9598278306737,1980.8080119596068,1975.1619642893245,1977.6820290900453,29.242562922244108,-0.7124332218883487,-0.3280659590060624,-0.7424750555131983
126,1.270000000000001,2.207610782230348,0.45828181180585936,3.184623261985834,0.3870491943607369,-0.47800973557066384,0.6870071188898084,0.3869377630047155,12.36981848782162,7.714740431752835,-3.394831144714237,-0.3183657555349457,0.5890733836037395,-0.709581697416301,0.2580416669619723,25.96828329068046,-20.505588473591185,0.0,0.0,0.0,0.0,0.0,0.0,0.0,0.0,0.0,0.0,0.0,0.0,0.0,0.0,0.0,2025.346780935304,1971.557750799605,1972.788926877842,2014.6609245647094,2012.7834499203473,1986.6576230489554,1983.582930533197,2006.0861193702408,28.478946145494476,-0.8311331141105119,-0.309568677347315,-0.7488483881510606
127,1.280000000000001,2.3313171995446433,0.5367161093669346,3.1496522024215223,0.3861519076647665,-0.48197333481231147,0.6851909597882248,0.38613696710008544,12.371104068167421,7.971488869889853,-3.599246965331207,-0.5178708678126103,0.15730797852073014,-0.7125654890793188,0.03584261825828605,25.54619853112161,-20.414323288925118,0.0,0.0,0.0,0.0,0.0,0.0,0.0,0.0,0.0,0.0,0.0,0.0,0.0,0.0,0.0,2029.2929704123533,1944.8418208706623,1959.869954597631,2003.4171709583795,2012.4757771553466,1961.4654292549185,1965.8716157970318,1996.4830641950773,28.293292215966027,-1.0676684356692454,-0.9266973779511045,-0.7253391718585565
128,1.290000000000001,2.4550230902803882,0.6176874373869238,3.112648339145356,0.38593004161541616,-0.4856569847522172,0.6823961709780557,0.3866920764311004,12.369581191240746,8.221692210348149,-3.8010054792171726,-0.6699865165232624,-0.050800636160980614,-0.7160924840249447,-0.2729990550704997,24.811478421021604,-20.068787559687884,0.0,0.0,0.0,0.0,0.0,0.0,0.0,0.0,0.0,0.0,0.0,0.0,0.0,0.0,0.0,1991.2636615886572,1933.7245597849487,1946.7190606738152,1965.3375047113936,1982.9657138458276,1939.5541468555866,1945.5511227861982,1964.0718150632183,28.303140818222833,-1.11822057721973,-1.2547246611086806,-0.7209849459026566
129,1.300000000000001,2.5787000865604703,0.7011379372282079,3.073639542446893,0.38634785219366347,-0.48907041473596,0.6786216679544526,0.3886104711894109,12.365398014439435,8.468102601816579,-4.000407906700882,-0.8695663586136669,-0.47089367674318383,-0.7174679221222129,-0.5298159553532855,24.585837979602232,-19.85015416874303,0.0,0.0,0.0,0.0,0.0,0.0,0.0,0.0,0.0,0.0,0.0,0.0,0.0,0.0,0.0,1992.9812230048863,1911.716651045253,1932.4452652090517,1969.603642666923,1977.257156297845,1927.4315054891476,1939.108782164471,1962.6791389763955,28.671461072435125,-1.529056045164206,-2.5999967357318305,-0.7278261674342356
130,1.310000000000001,2.702322900742517,0.7870484290907336,3.032646970390548,0.38769094218311967,-0.4920136794495537,0.6737602211111007,0.3920018329446914,12.358752592774577,8.71404352431788,-4.19771327004542,-0.9910184156684014,-0.8345090800244171,-0.7175398535153886,-0.7767742920137266,24.609241495719303,-19.618290356214985,0.0,0.0,0.0,0.0,0.0,0.0,0.0,0.0,0.0,0.0,0.0,0.0,0.0,0.0,0.0,1988.7287335216658,1915.2673117130478,1930.1620655734216,1972.9266858456942,1977.3837719711062,1927.083991377244,1936.7682524833126,1966.5511831313722,27.154713747528678,-1.6100197662676687,-4.7459672620461895,-0.7317515645200181
131,1.320000000000001,2.82586760929278,0.8754278057523354,2.9896921178756424,0.3905673817807756,-0.49411786073305214,0.6672658205521712,0.3975688427383864,12.349805246345028,8.962518790951446,-4.392811186990377,-1.268723984839852,-1.6833097812261306,-0.7166145213296161,-1.0066683236207297,25.000560800792826,-19.35756885194273,0.0,0.0,0.0,0.0,0.0,0.0,0.0,0.0,0.0,0.0,0.0,0.0,0.0,0.0,0.0,2034.8176923707335,1890.8405755092565,1916.5361027654533,2007.9820479343246,2006.511997660264,1924.2539504789204,1935.4175457684312,1991.4218353970105,25.302029065246174,-1.4728671234387454,-6.089468038708012,-0.7355998108508852
132,1.330000000000001,2.9493040485250415,0.9662638644937593,2.944824443162715,0.39674251775419794,-0.4942472513105304,0.6579531090060442,0.40670964523518,12.336796568075213,9.203301102691595,-4.578891234658433,-1.4414499565901902,-3.1503278243775292,-0.7153528882885712,-1.4619180973323154,23.86973749506538,-18.155976105142635,0.0,0.0,0.0,0.0,0.0,0.0,0.0,0.0,0.0,0.0,0.0,0.0,0.0,0.0,0.0,2025.9720400402298,1795.4862717234766,1812.564634862159,2005.5439532303692,1981.665861602698,1843.1986260215838,1850.7250315281267,1968.2651312482776,24.206486778250156,-1.7157158559318118,-6.786557789163762,-0.7027243599975298
133,1.340000000000001,3.072587886613095,1.059445294059061,2.8981636634435985,0.40724720933752917,-0.49149526354922196,0.6454114309854403,0.4195547653749174,12.319308277748705,9.431094027065729,-4.750777090233814,-1.462368239771654,-4.5273083028330845,-0.7137174163219652,-1.8977488134392928,22.476872216143917,-16.576198978875745,0.0,0.0,0.0,0.0,0.0,0.0,0.0,0.0,0.0,0.0,0.0,0.0,0.0,0.0,0.0,1958.7065701731613,1735.213661330641,1729.9145802242779,1954.6868284591308,1921.9993857789127,1770.774603450504,1765.6200197641297,1918.011110139307,21.79684890329902,-1.5955468953583805,-6.6151717804472066,-0.6903528782026027
134,1.350000000000001,3.1956787294974913,1.154855133347043,2.849859112485222,0.42120190318512507,-0.4860906180496812,0.6298485338685237,0.43542587449642783,12.298365921194806,9.649915701131432,-4.907658870226861,-1.6096585554046015,-5.574440897088568,-0.7080460549828085,-2.2126334567236228,21.753719078585476,-15.049517993213968,0.0,0.0,0.0,0.0,0.0,0.0,0.0,0.0,0.0,0.0,0.0,0.0,0.0,0.0,0.0,1897.2990126876514,1710.1833677877453,1717.4528879989161,1893.8575147389931,1868.6948106409147,1738.182153366482,1737.7589120154908,1871.581937179712,19.074593248540104,-1.7339418762646108,-7.524399214537137,-0.6884236980702999
135,1.360000000000001,3.318540989308589,1.2523827789027966,2.8000719156655953,0.43697405251909166,-0.47878681053212674,0.6120682615344645,0.45297826736797653,12.273438672167707,9.852897243740296,-5.046860224460379,-1.6134489098198046,-6.036971411450196,-0.7001150527054386,-2.635932181485501,19.83954795090348,-13.205789132713974,0.0,0.0,0.0,0.0,0.0,0.0,0.0,0.0,0.0,0.0,0.0,0.0,0.0,0.0,0.0,1761.2778025686387,1669.8561383345204,1665.8172718602566,1770.490531799995,1749.9424658423127,1672.9156092096237,1668.4617298543335,1758.8490741220417,23.02669053492902,-2.242982460403231,-9.64948845707738,-0.664671791439183
136,1.370000000000001,3.4411323112777223,1.3518305335139242,2.7489826503368135,0.45396441009588634,-0.46974518694563655,0.5922936536785293,0.4716396945973071,12.244175958472985,10.03336666667422,-5.168243260222924,-1.6958846557667757,-6.748422168456805,-0.691407785748537,-3.0679626890464107,17.48372016699662,-11.460063861553849,0.0,0.0,0.0,0.0,0.0,0.0,0.0,0.0,0.0,0.0,0.0,0.0,0.0,0.0,0.0,1665.034042322498,1546.0784519811432,1543.5358526336504,1670.830401974839,1638.5512672809584,1564.6987081272841,1557.1451880123543,1647.5465842376734,25.36112972332689,-2.8560949347157454,-10.0,-0.6284271182842894
137,1.380000000000001,3.563426205550431,1.453138858746167,2.696741712539535,0.47297083710779,-0.4580453521083972,0.5689388304235609,0.4927490739653617,12.214771826671871,10.23427369275061,-5.277919698744004,-1.9995523167303955,-8.136390701094186,-0.6778837011971801,-2.9406862408638546,21.269465817937316,-10.327272157823586,0.0,0.0,0.0,0.0,0.0,0.0,0.0,0.0,0.0,0.0,0.0,0.0,0.0,0.0,0.0,1864.7894654142763,1622.7153331136176,1650.0008931267666,1852.2110943509288,1821.6798297097685,1694.2344499184899,1698.1997509185142,1824.2084545371042,25.914452755449933,-3.1238701711537282,-10.0,-0.584286741171276
138,1.390000000000001,3.6854278882862186,1.5566222045351366,2.643480239440741,0.4934404440743913,-0.44365399925772214,0.541041160237229,0.5166837717825572,12.185342698224577,10.466472217904025,-5.370955575396841,-2.452198664138589,-8.981879770255787,-0.660321268531166,-3.0378734927420936,24.01694048806391,-8.338016066653964,0.0,0.0,0.0,0.0,0.0,0.0,0.0,0.0,0.0,0.0,0.0,0.0,0.0,0.0,0.0,1933.3800338930153,1738.7190179207114,1788.0875610413111,1904.1585589519273,1908.1492678046404,1778.0966286630173,1799.95872715044,1901.3731418456698,27.7948128280473,-2.6611136902188766,-9.999999999999996,-0.5917109010819902
139,1.400000000000001,3.807123055040448,1.6625116591506004,2.589400093921637,0.5136678467480429,-0.4275639716500396,0.5093895234749305,0.5420855160747764,12.15301214007435,10.712662132386573,-5.440927049609301,-2.802839857561095,-9.439666676399838,-0.6371672210519679,-3.430098124988845,24.8651620411664,-5.8668113299473745,0.0,0.0,0.0,0.0,0.0,0.0,0.0,0.0,0.0,0.0,0.0,0.0,0.0,0.0,0.0,1918.648486438082,1800.1284622943474,1845.6543363537075,1899.618020616784,1905.3191269644303,1817.8983730000086,1845.5430049549045,1901.2335901591628,28.917616111179758,-2.6660218198426118,-10.0,-0.5825464785175739
140,1.410000000000001,3.928474570451374,1.7709336828350761,2.5347552555994395,0.5331792071686351,-0.40978492302979935,0.4753213698603751,0.5673322177124648,12.116540310454806,10.974309393234941,-5.483052084694088,-2.7387308931001564,-9.69047620204138,-0.6139759023050647,-3.863904290740905,26.621135509273586,-2.880319968314282,0.0,0.0,0.0,0.0,0.0,0.0,0.0,0.0,0.0,0.0,0.0,0.0,0.0,0.0,0.0,1945.6263002459418,1910.160547271287,1905.14234577364,1962.8650838755264,1949.329926331798,1914.5112507139363,1915.097003439646,1958.4450845088575,28.723875193618166,-3.3316832309883324,-10.0,-0.5440908720724817
141,1.420000000000001,4.049437271861399,1.8820362111672533,2.4798442018479228,0.5517897155004641,-0.3902975100459953,0.439687809835124,0.5914985996620828,12.075090948634987,11.247273560504444,-5.4937972749150825,-2.730320054684993,-9.825770916866503,-0.5926251088579793,-4.398503499672302,27.430361263808933,0.34917523589417243,0.0,0.0,0.0,0.0,0.0,0.0,0.0,0.0,0.0,0.0,0.0,0.0,0.0,0.0,0.0,1974.352198381451,1964.3474166247006,1951.0083800482719,1994.4332332323283,1976.0886094651905,1967.7846266972847,1955.7162531069393,1992.7566280249396,28.537407793401606,-3.5766193281998304,-10.0,-0.5114623587075569
142,1.430000000000001,4.169956143971529,1.9958663459065005,2.424980378268723,0.5687898544314649,-0.3699215300487356,0.40215890216321026,0.6147392784856982,12.027557332128344,11.517528327364074,-5.473981095344011,-3.0670369451851482,-9.898148515181425,-0.5691542891382997,-5.066500568910115,26.69119893784,3.3341222482796695,0.0,0.0,0.0,0.0,0.0,0.0,0.0,0.0,0.0,0.0,0.0,0.0,0.0,0.0,0.0,1980.0047972703376,1946.6492932950937,1969.6408460705825,1969.9376668742618,1970.9685881345547,1956.6066340160967,1961.6025335860156,1976.8057703527659,29.890470830176284,-3.4754806500294855,-10.0,-0.44656960158130027
143,1.440000000000001,4.289963752683134,2.1123547837717487,2.370462990235237,0.5837360077611723,-0.34918429326527584,0.3625250778272068,0.63710138167034,11.972633218763532,11.778319270073881,-5.42459371136268,-3.3374634221254653,-9.936901269334172,-0.5424472739664616,-5.859202404923991,25.58172023866412,6.269016614893097,0.0,0.0,0.0,0.0,0.0,0.0,0.0,0.0,0.0,0.0,0.0,0.0,0.0,0.0,0.0,1972.5489765391396,1940.2783804176438,1968.8813274470604,1959.739697647553,1965.7638761155492,1947.766305560064,1962.0050123787146,1964.8839837302844,31.84669792340442,-2.872518997605047,-9.999999999999998,-0.44247434202926117
144,1.450000000000001,4.409379285838168,2.2314246344375754,2.316606823056153,0.5967329176971851,-0.32784590565536004,0.321313742338619,0.6581674301163593,11.908904136599347,12.034939660886112,-5.34061894077731,-3.417568958551824,-9.958027556823824,-0.5116033797074033,-6.796720568244652,25.308648756514174,9.94201884515622,0.0,0.0,0.0,0.0,0.0,0.0,0.0,0.0,0.0,0.0,0.0,0.0,0.0,0.0,0.0,2002.0686045594177,1991.3280249973232,2007.972362401874,2013.9213193487133,2003.590494737304,1995.3162788151296,2009.0850828943207,2016.143436326904,33.88928414300714,-2.8533173546750055,-9.717983412245164,-0.42961537155241303
145,1.460000000000001,4.528107549686138,2.3530507575316872,2.2637882934190965,0.6081606434823194,-0.3051947022326474,0.27955123253893643,0.6773831514248478,11.835038585325764,12.289385776362096,-5.216332410917272,-3.153556767918542,-9.97044577100326,-0.48220582185271504,-7.8315925609278025,24.983341254349867,14.108808488478175,0.0,0.0,0.0,0.0,0.0,0.0,0.0,0.0,0.0,0.0,0.0,0.0,0.0,0.0,0.0,2049.308838592082,2075.829681249707,2052.6135537490245,2091.2762503555077,2060.6424236117587,2072.696954067148,2062.930456165254,2086.2417051247517,35.352311343845216,-3.3390209443477175,-9.999999999999991,-0.39129812718180973
146,1.470000000000001,4.646044435327752,2.4771944194221915,2.21242685551992,0.6180470334256953,-0.28130657350047994,0.2378902896781064,0.6944729557412463,11.750583573111799,12.537512577632475,-5.049023791227067,-3.0315228174044084,-9.839330165859842,-0.45612241214402693,-8.898697264820399,24.105347936018262,18.423594364882057,0.0,0.0,0.0,0.0,0.0,0.0,0.0,0.0,0.0,0.0,0.0,0.0,0.0,0.0,0.0,2109.961819721459,2148.7326932328897,2127.942414204514,2143.8872826427782,2120.9975770153474,2145.724462245803,2129.5903468412143,2147.6688218854333,35.51527570599143,-3.528918965485503,-9.999999999999973,-0.35986264095945586
147,1.480000000000001,4.763083536795466,2.603751098004958,2.1629434347469068,0.6261068803426773,-0.25683028407323544,0.1955777423818607,0.7097730103739055,11.655440614893994,12.770414512440382,-4.841431530273183,-3.215247921917216,-9.917824135154552,-0.42927182701044714,-9.985925832999953,22.218146415031725,22.292263110766264,0.0,0.0,0.0,0.0,0.0,0.0,0.0,0.0,0.0,0.0,0.0,0.0,0.0,0.0,0.0,2181.0864491120847,2168.9393667405748,2179.972156041332,2186.8067824315162,2176.25594378065,2179.802703252755,2179.7552112393437,2190.735559940691,35.53920694052372,-3.386188881101463,-9.999999999999943,-0.28743303570128065
148,1.490000000000001,4.879119103907714,2.7325087452492935,2.115698232432222,0.6321942169904748,-0.2319890221120533,0.15197941158189757,0.7234734439345468,11.549989698665893,12.975756790185983,-4.603272211824421,-3.385379055589033,-9.947528189388098,-0.4006104381346705,-10.997920423573504,19.048294482921335,24.941563540108014,0.0,0.0,0.0,0.0,0.0,0.0,0.0,0.0,0.0,0.0,0.0,0.0,0.0,0.0,0.0,2191.1203557747176,2172.5325844260983,2191.197480302796,2190.272118257954,2187.2554844985366,2178.337655881049,2187.7401588593675,2193.3074457198113,34.4497221202443,-3.125088591849006,-9.709003153930059,-0.2659574343897906
149,1.500000000000001,4.99405014130705,2.8631505878534136,2.0709547780167936,0.6363420647466113,-0.20666742986964018,0.10760489752420574,0.7353764587569434,11.434605523551344,13.14651425412967,-4.341989573720967,-3.3930848792153943,-9.965859486299536,-0.36811574804271213,-11.968913911106327,15.409202843603254,27.024177048531328,0.0,0.0,0.0,0.0,0.0,0.0,0.0,0.0,0.0,0.0,0.0,0.0,0.0,0.0,0.0,2180.8461120959914,2177.9446471227907,2190.6862380782136,2199.8376896295185,2181.524037769642,2178.390398168941,2190.860501040462,2198.779696391427,22.068630724510392,-2.7756568555771377,-8.578067973621984,-0.2529249445697309
150,1.5100000000000011,5.107785739942763,2.995300776973888,2.028891563857547,0.6386480224316068,-0.18078300019150068,0.06338266257161333,0.7452709898897789,11.311364058681011,13.276546833535994,-4.069447613828634,-3.2685799436413463,-9.833281574508842,-0.33561045211387963,-12.647332340257833,11.166093108807118,27.663360743003018,0.0,0.0,0.0,0.0,0.0,0.0,0.0,0.0,0.0,0.0,0.0,0.0,0.0,0.0,0.0,2133.132939313197,2162.6002825060386,2159.555282490506,2165.3901581109108,2139.5477357379523,2154.5537478538236,2156.6036914367883,2163.6791565543385,10.202243942112068,-2.6288826472090854,-8.678526288546657,-0.21897723744200684
151,1.5200000000000011,5.220322661581427,3.12844952536672,1.989269480242366,0.6392135079491632,-0.15528647131039755,0.020994539299528055,0.7528953661717481,11.198401038126581,13.343392448089224,-3.869275216244781,-3.0297520823260458,-9.20818048107496,-0.30599074317337077,-10.921312807054662,4.5472997418176675,17.499152701184517,0.0,0.0,0.0,0.0,0.0,0.0,0.0,0.0,0.0,0.0,0.0,0.0,0.0,0.0,0.0,1677.061157665158,1794.035146125345,1774.623307028511,1727.6843580485954,1680.5821762578353,1753.5103221662941,1741.4655577842962,1718.3612508290876,10.926483186340256,-2.749731118226996,-9.658461465402745,-0.1883184891951662
152,1.5300000000000011,5.331830801647745,3.2619902476853007,1.9511120817821859,0.6382633885423453,-0.1303074366917827,-0.019295702422052544,0.7584639046502477,11.106336671805114,13.358493841422826,-3.7774588104555002,-2.842363659758345,-8.97155884023698,-0.27942303593791157,-8.669390812903188,0.18678690109474871,6.474033364250342,0.0,0.0,0.0,0.0,0.0,0.0,0.0,0.0,0.0,0.0,0.0,0.0,0.0,0.0,0.0,1128.6607543025254,1245.0296258158005,1222.1929941369601,1199.1416819770996,1114.111222691635,1207.1059256062442,1191.0501742809743,1173.570069966366,10.90908062699137,-2.5257770993240802,-9.66861355136452,-0.12238098584314513
153,1.5400000000000011,5.442458059340236,3.3955540012936307,1.9136627469936511,0.6358140593075885,-0.10449602469141128,-0.059324504828645604,0.7624314172024486,11.018795622904555,13.351615005844524,-3.7118438351612926,-2.8134482159079583,-9.315867383754712,-0.2526948923305887,-8.830075355229283,-1.4114510906857447,6.675272765960916,0.0,0.0,0.0,0.0,0.0,0.0,0.0,0.0,0.0,0.0,0.0,0.0,0.0,0.0,0.0,1220.5040142816451,1177.1285788189864,1179.4138638321078,1264.8746289552887,1201.635362682383,1202.6275035045614,1202.6279994667436,1244.0602281737324,8.971327654950224,-2.007303439717165,-9.459231815568579,-0.10907465140372294
154,1.5500000000000012,5.552202918124715,3.52896776918853,1.8768771777501996,0.6317394846643554,-0.07721099130960053,-0.09966437811570815,0.7648599205552692,10.930084774204488,13.328364163782716,-3.645467975621738,-2.6751803045606035,-9.468445488261295,-0.22364228763183658,-8.89004832310114,-3.074706538777505,6.569700684567525,0.0,0.0,0.0,0.0,0.0,0.0,0.0,0.0,0.0,0.0,0.0,0.0,0.0,0.0,0.0,1203.767110601078,1184.6063641066094,1188.9909837638102,1267.926700949929,1203.3836235071303,1186.8571300502567,1199.5330033779476,1256.6730649765448,8.095748425682533,-1.7345332242814235,-9.550261048669327,-0.10881693014902029
155,1.5600000000000012,5.661073128455161,3.6620712950817027,1.8406924540467933,0.626093643097004,-0.04872406678584468,-0.13905084427793304,0.7657007105226975,10.844685528342858,13.290071219181927,-3.594515214025082,-2.3427454622772665,-9.453787746248326,-0.19543568175191287,-8.39314396194446,-4.4472846911407515,4.48711848182759,0.0,0.0,0.0,0.0,0.0,0.0,0.0,0.0,0.0,0.0,0.0,0.0,0.0,0.0,0.0,1055.554058573675,1116.634623224735,1083.7613229199137,1156.9392027661577,1068.7732910919308,1097.5001636088575,1087.2365315282384,1141.2554569982622,9.223404066941047,-1.785009799181741,-9.999999999999996,-0.09899679730756407
156,1.5700000000000012,5.769109367613125,3.7947276950922912,1.804937616259471,0.6189236431892889,-0.019110442354929362,-0.17697108244804594,0.765016046152931,10.763122107661422,13.239224464520234,-3.55844072068779,-2.05083611206128,-9.501173566407925,-0.17227800226630943,-8.028299418642248,-5.631646179931948,3.170163194023523,0.0,0.0,0.0,0.0,0.0,0.0,0.0,0.0,0.0,0.0,0.0,0.0,0.0,0.0,0.0,1001.2581017430617,1064.496470592808,1016.677186714166,1101.2156912156693,1010.3517817673219,1052.7613352883575,1027.463134478513,1083.977310372564,12.540300009861165,-1.8531036694507814,-9.99999999954187,-0.09386441958547288
157,1.5800000000000012,5.876335872041506,3.9268057716771714,1.7695274801762195,0.6100879712235476,0.011701113762313904,-0.21414369902822114,0.7627569910997655,10.68215685403659,13.173740972661609,-3.5231763134495946,-1.9338897219477214,-9.742327150389414,-0.15167947394799106,-8.066993962728475,-7.232200778348741,3.508995651118063,0.0,0.0,0.0,0.0,0.0,0.0,0.0,0.0,0.0,0.0,0.0,0.0,0.0,0.0,0.0,1109.4474509958106,1090.847068261216,1071.7234331175243,1168.4897731860458,1103.4059334780134,1106.221909611583,1092.109615595081,1154.6194237312577,16.207096571169437,-1.5180149865545323,-9.990801390049697,-0.024635044965978917
158,1.5900000000000012,5.982737347119486,4.0581219944822235,1.7345379741088596,0.5994880681614161,0.043369541587530924,-0.25105876849612335,0.7587507059342949,10.597484407505489,13.085222440324355,-3.471904523287215,-1.9026515166695952,-9.856795145418921,-0.1329414923494898,-8.54511763850141,-9.87715517037202,5.522325659465199,0.0,0.0,0.0,0.0,0.0,0.0,0.0,0.0,0.0,0.0,0.0,0.0,0.0,0.0,0.0,1292.5590268150065,1273.986698238325,1274.0550969031913,1319.7707683221404,1298.582256615837,1287.9042825861295,1285.5968113583626,1324.9743084097154,31.07263229773823,-1.4058819860469123,-10.0,-0.0022087872208082088
159,1.6000000000000012,6.088267530935255,4.188402614125224,1.7001642957796048,0.5871685525271233,0.07557406126752823,-0.287183082727845,0.7530255833513669,10.507965784502693,12.965557839393595,-3.4001744857921654,-1.7106177976495036,-9.91751253503845,-0.11180676049786575,-8.999800166767713,-13.217621790486689,7.4910441067452815,0.0,0.0,0.0,0.0,0.0,0.0,0.0,0.0,0.0,0.0,0.0,0.0,0.0,0.0,0.0,1448.2523648902838,1463.4865214773947,1458.320092723868,1501.546848428237,1463.7637039782264,1467.0489303236222,1475.13453025234,1502.3818422672884,42.25782407418249,-1.4338696641346917,-9.999999999985892,0.0030457396511259453
160,1.6100000000000012,6.192821124638541,4.317146346088104,1.6668250411198222,0.5731517870709562,0.10822223200089057,-0.32210627481759835,0.7456758848194331,10.399140722635051,12.767135199833614,-3.253611746279215,-1.5668530461451746,-9.955638023893657,-0.09002456267965335,-11.462938602710082,-23.308006650326618,17.01036941385814,0.0,0.0,0.0,0.0,0.0,0.0,0.0,0.0,0.0,0.0,0.0,0.0,0.0,0.0,0.0,2000.954909843404,2015.578856737793,2013.1724176389484,2039.8304610399548,2032.6635424609008,2040.938144497849,2044.9443265780585,2062.6686192977772,44.130668080913956,-1.3606162788463922,-9.652484025606514,-0.003512577018612707
161,1.6200000000000012,6.296189028877006,4.443393537408592,1.6353374059996637,0.5575046164268475,0.14095909474088508,-0.35592373037973285,0.7366392837917071,10.272647991478404,12.466279391856585,-3.036182831648666,-1.5081134988509148,-9.975593435146875,-0.06999925995596455,-12.833642887901675,-33.57957080228502,22.72900382276477,0.0,0.0,0.0,0.0,0.0,0.0,0.0,0.0,0.0,0.0,0.0,0.0,0.0,0.0,0.0,2357.7025536451783,2364.0108540392966,2367.9064774924045,2380.125773461458,2376.3830943643115,2381.873695334341,2386.138586702726,2396.4422037431773,44.41165692609827,-1.1851155195710683,-8.661865205767695,0.014535895609849851
162,1.6300000000000012,6.3982814989058845,4.566265266118643,1.606097882657419,0.5404649647390297,0.17322503383044185,-0.388416415429284,0.7259637716643631,10.147128437244094,12.100376295893206,-2.8152075157111,-1.4368030042554956,-9.815868223374308,-0.052859616742196816,-12.145348220530039,-38.446190372146916,20.934314663847875,0.0,0.0,0.0,0.0,0.0,0.0,0.0,0.0,0.0,0.0,0.0,0.0,0.0,0.0,0.0,2417.820137424248,2441.3800407421486,2442.619273195536,2434.497537503792,2427.1708073786417,2439.7237003925225,2442.3927065629587,2440.6971204745896,43.597785267748186,-0.832908093154239,-7.685883747659764,0.061942629760461915
163,1.6400000000000012,6.49916666062202,4.685283282385717,1.578929138943321,0.5226884752209158,0.20398350691016798,-0.4186404328866344,0.7140922032429391,10.031817783340763,11.698264953658112,-2.6243242005924583,-1.3114911823994142,-9.25578029770755,-0.037305095707466394,-11.00641897476784,-41.483029216864864,17.49774959733541,0.0,0.0,0.0,0.0,0.0,0.0,0.0,0.0,0.0,0.0,0.0,0.0,0.0,0.0,0.0,2404.023351891986,2475.432188879181,2473.050220750299,2424.9221937979323,2421.405881569355,2460.4932997639366,2462.1536743685506,2436.715196964759,42.819403135850116,-0.547590821229441,-6.7025286992716335,0.08240132664084862
164,1.6500000000000012,6.598960696239615,4.800165450678477,1.5534787466688535,0.5049136980814007,0.23240094526929897,-0.4455907763299079,0.7017840253079365,9.929129791949022,11.27547627774038,-2.472279733885241,-1.0707484791477515,-8.509133156156889,-0.02102517927330633,-9.705097339987034,-43.04792753498887,13.50751800894967,0.0,0.0,0.0,0.0,0.0,0.0,0.0,0.0,0.0,0.0,0.0,0.0,0.0,0.0,0.0,2361.643217380923,2470.1944494342206,2463.3772637697016,2397.4811085599376,2382.7625339239285,2448.742014498746,2450.461960806456,2408.3318730256215,42.01255863630688,-0.4603238848427529,-5.657816554016186,0.09018960196295786
165,1.6600000000000013,6.697792041093697,4.91075387225303,1.5293549161695097,0.48766747235057617,0.25816068308544804,-0.46883557171148577,0.6897294432007519,9.839199408723518,10.840472196703255,-2.358504481593341,-0.8120703267166866,-7.653400852921849,-0.005548237746609236,-8.45102550023391,-44.021577018664715,9.818216488006293,0.0,0.0,0.0,0.0,0.0,0.0,0.0,0.0,0.0,0.0,0.0,0.0,0.0,0.0,0.0,2329.4989997163407,2457.3999551236247,2447.868282279472,2370.4621658016003,2352.495152197735,2434.4036174295206,2433.6980126932176,2382.456362057307,41.86498499970642,-0.35985878479542016,-5.480385364224075,0.1118199412508618
166,1.6700000000000013,6.795785147310108,5.016954364112819,1.5061919135829134,0.4714998480416436,0.2809121603737481,-0.48847563134062266,0.6783566974956764,9.761322067155746,10.398726782827108,-2.279476255170983,-0.6426129581302688,-6.708731525694174,0.007786680272154886,-7.2912791077950345,-44.48093462079328,6.514323237851727,0.0,0.0,0.0,0.0,0.0,0.0,0.0,0.0,0.0,0.0,0.0,0.0,0.0,0.0,0.0,2304.2416062192246,2437.9954871770333,2433.678171027123,2338.0098336817755,2326.8106273470544,2415.3062125563506,2415.9349043775746,2353.8341947123604,41.74628264950665,-0.14404934330403102,-5.161818975025037,0.140661770108633
167,1.6800000000000013,6.893053652869804,5.118704982700255,1.4836686105576156,0.4563553902452947,0.30112379797816435,-0.5052745936023052,0.667653953141368,9.69406498103992,9.950248054754553,-2.229716824336728,-0.5040113863751885,-6.145476042776338,0.02040054973931416,-6.274820807529835,-45.16153091956987,3.7723127908591003,0.0,0.0,0.0,0.0,0.0,0.0,0.0,0.0,0.0,0.0,0.0,0.0,0.0,0.0,0.0,2320.262468322774,2411.93156708738,2413.2556489760364,2350.513126263752,2331.96500046918,2400.6203061435567,2405.8784137510734,2357.1733634081747,40.542722875097645,-0.46119305605778527,-2.9856439532711168,0.09903377003412522
168,1.6900000000000013,6.989699436618993,5.215940316293214,1.461510547912393,0.4417781259727061,0.3196787529512249,-0.5199130171776334,0.6575165677706103,9.636717776722344,9.496006706893997,-2.2060540282524865,-0.32354299412068643,-5.684119539302302,0.03361318334027348,-5.2972294655084795,-45.64456713664988,1.2599495473617495,0.0,0.0,0.0,0.0,0.0,0.0,0.0,0.0,0.0,0.0,0.0,0.0,0.0,0.0,0.0,2323.8817670831822,2399.099563133299,2400.7314171820594,2358.9357535982176,2335.3935957278654,2388.064236567213,2395.759824856562,2363.2714294274588,39.65553316288054,-0.5048839143255629,-1.0473298732036265,0.06967613776424732
169,1.7000000000000013,7.085820311338661,5.3086460603720145,1.439460681268561,0.4290935876444203,0.33512285929586755,-0.5320660717468123,0.6484420232493561,9.588843216529163,9.046085370833547,-2.2077403530306126,-0.40313575872070356,-4.3735733508529755,0.04226362578873297,-4.437321345097445,-44.85908109524317,-1.130434938076963,0.0,0.0,0.0,0.0,0.0,0.0,0.0,0.0,0.0,0.0,0.0,0.0,0.0,0.0,0.0,2258.9783111707175,2403.1707649688374,2414.8335137536096,2266.768957013866,2288.693284726831,2373.6223451441406,2381.2996096761717,2300.1499973800983,39.59993084037005,-0.3264687972610707,-0.11690157508027588,0.06687158979917603
170,1.7100000000000013,7.181498971379625,5.396888151787284,1.4172888070751721,0.4201408517058505,0.3455603905918629,-0.5410640809407737,0.6413418289006242,9.547746495842144,8.603311335259281,-2.2293291868412495,-0.45135161041044236,-2.795604216355872,0.04697890142509136,-3.9002120623212733,-44.10639985193221,-2.824119708015882,0.0,0.0,0.0,0.0,0.0,0.0,0.0,0.0,0.0,0.0,0.0,0.0,0.0,0.0,0.0,2212.080285554102,2401.9535613815915,2411.4507904964353,2210.5194738324362,2247.6923825479366,2368.095634616098,2374.7503666546877,2248.613384724485,39.16732022577042,-0.23344973551042264,1.4087666984525176,0.06567393377762462
171,1.7200000000000013,7.276787416295196,5.4807184309202315,1.3948333717512036,0.41489516805555066,0.3513923900258657,-0.5469391848389794,0.6365869271699969,9.51036063195167,8.162886271344336,-2.2632928695639802,-0.38362275096911275,-1.5477849734236764,0.04993103904233863,-3.6378360066908755,-44.00585103136834,-3.7780640365236984,0.0,0.0,0.0,0.0,0.0,0.0,0.0,0.0,0.0,0.0,0.0,0.0,0.0,0.0,0.0,2220.7107766828985,2390.644300387413,2390.036134983112,2227.9794266966924,2247.9793833955828,2365.6201967933725,2367.8005987288575,2251.6007670473,38.65670553904527,-0.1409470349620425,2.25358701632568,0.1278365293850098
172,1.7300000000000013,7.371711300262357,5.560161982011383,1.3719989259993497,0.4131228007969181,0.353110750291774,-0.5498005078617612,0.6343199122249278,9.474484751506045,7.7265806247696895,-2.3043018039675047,-0.3091817141917184,-0.145185879392089,0.05198411898713672,-3.5832039982590658,-43.47027707349582,-4.24817466566596,0.0,0.0,0.0,0.0,0.0,0.0,0.0,0.0,0.0,0.0,0.0,0.0,0.0,0.0,0.0,2201.927455690088,2384.668344825487,2380.1058072291976,2212.236133116566,2234.244766946286,2354.5298737398057,2352.9233560912203,2240.7304920341717,38.96020266190345,-0.14494304157225046,2.7117837817500616,0.058238489019695666
173,1.7400000000000013,7.466275189304851,5.635272031036506,1.3487411312042799,0.4146443582018885,0.3509973652470037,-0.5498134369201976,0.6344888418112689,9.438049711984931,7.296455691711108,-2.347151607122925,-0.22611401646413556,0.974792394595058,0.05784098124566294,-3.719575129773389,-42.79055743580873,-4.220443339482571,0.0,0.0,0.0,0.0,0.0,0.0,0.0,0.0,0.0,0.0,0.0,0.0,0.0,0.0,0.0,2195.3166532334167,2353.7061348298357,2357.0298201723576,2216.3549119669,2219.1616300074684,2330.120932129268,2336.686421452324,2236.862834002161,39.684403451566425,-0.1591543088872244,3.0495656587300486,0.07507486508737049
174,1.7500000000000013,7.560464751600167,5.70609414510287,1.325067438207088,0.4186726247733841,0.34593832563863647,-0.547642898209368,0.6364960048268533,9.399368221547455,6.868002590138754,-2.3866944085126085,-0.1886150470417191,1.7823639892593781,0.059890500375345185,-4.008996229083905,-42.79920609628807,-3.699362883073931,0.0,0.0,0.0,0.0,0.0,0.0,0.0,0.0,0.0,0.0,0.0,0.0,0.0,0.0,0.0,2231.6668272330808,2346.108344542551,2341.4509114744797,2237.2687885441583,2247.842888849479,2332.1876507830625,2328.0460857140156,2251.5655764959356,40.643267904411005,-0.07405627566534789,3.339819283546454,0.09598431643763541
175,1.7600000000000013,7.654250374289325,5.772619844878819,1.3010322239382703,0.4245177500053502,0.3386965379590739,-0.5439005764619933,0.6397198590236542,9.357052982454949,6.4366494205838345,-2.4188923043429424,-0.17576471265222196,2.3729302016789053,0.060767008270960474,-4.42595781830768,-43.17814121632857,-2.826805949071698,0.0,0.0,0.0,0.0,0.0,0.0,0.0,0.0,0.0,0.0,0.0,0.0,0.0,0.0,0.0,2268.426671030886,2349.237438541535,2349.416165567854,2273.0320124027535,2280.028923481778,2340.068548910221,2340.4129343651975,2284.570320784756,41.46927387013759,-0.034471394604600636,3.478598550269915,0.09464856351332462
176,1.7700000000000014,7.74758971369447,5.834807322973728,1.2767246423748395,0.4316438329872975,0.3298233548591849,-0.5388843729264889,0.6438196864410802,9.309946097883817,6.000122179738929,-2.440726824029338,-0.12445372264490467,2.824669278090543,0.06345803375353297,-4.945697719705322,-43.72986113093269,-1.6808324484895998,0.0,0.0,0.0,0.0,0.0,0.0,0.0,0.0,0.0,0.0,0.0,0.0,0.0,0.0,0.0,2303.096704552553,2366.6250430541913,2367.4354198087613,2313.244695305712,2313.6664961399215,2359.0942468799253,2361.880947824074,2321.8019780824834,42.548013070562824,-0.024812479948377396,3.432737932705867,0.08802751754725939
177,1.7800000000000014,7.840430578435446,5.89260650783999,1.2522594484780643,0.4396034748811362,0.3197759635872972,-0.5328118162186193,0.6485396568306846,9.257254788616345,5.559279304204567,-2.4501497282180056,-0.08128559957699878,3.1279261752826515,0.06649973489877108,-5.529697632839614,-44.097844399514585,-0.3718193336261777,0.0,0.0,0.0,0.0,0.0,0.0,0.0,0.0,0.0,0.0,0.0,0.0,0.0,0.0,0.0,2336.5791329350527,2381.6721193199123,2381.6348523347338,2346.324845765704,2343.795806578468,2377.1463215848066,2378.630528691645,2351.6732020558084,43.48748961000109,-0.04379506973453334,3.291205366250428,0.08072186141618093
178,1.7900000000000014,7.9327138539416655,5.945973924866292,1.2277699679667866,0.44797075999838293,0.3090173718474509,-0.5260275752417086,0.6535483548814839,9.198334439938824,5.113561439319139,-2.4453023822209277,-0.055185311611376256,3.2658130209511413,0.06880770230980572,-6.173624301718306,-44.614477739701286,1.1177476171577716,0.0,0.0,0.0,0.0,0.0,0.0,0.0,0.0,0.0,0.0,0.0,0.0,0.0,0.0,0.0,2378.59255523037,2401.771506525269,2401.6655916712643,2385.327665463564,2382.114079511311,2401.496562071005,2402.048414572912,2387.8645709416937,44.24451732215919,-0.0872046891710335,3.0821954722733063,0.07224187698883082
179,1.8000000000000014,8.024375163271376,5.994863084504424,1.2034044834800535,0.4563738719122181,0.29797884709147854,-0.5189065297331074,0.6585343644201321,9.132829089192967,4.663912628288597,-2.425293403444648,-0.05151641114859943,3.2734471524317215,0.07018315439203249,-6.839091428814115,-44.946829327035864,2.645772696027837,0.0,0.0,0.0,0.0,0.0,0.0,0.0,0.0,0.0,0.0,0.0,0.0,0.0,0.0,0.0,2415.243821113382,2419.5863862432907,2420.10995489575,2418.373100792477,2415.6523798491567,2421.990903418271,2422.309136576276,2418.744619435633,44.87408715014296,-0.1377224214517363,2.827302482049852,0.0646579965269007
180,1.8100000000000014,8.115348144088111,6.039245342685333,1.1793146815760531,0.46454612016562086,0.28699163430649777,-0.511783608924468,0.6632572967660448,9.060674071616424,4.212520102026704,-2.39023858161611,-0.07105481889401115,3.1799407842091574,0.070564406890921,-7.502137204662418,-45.05277130760987,4.130698208661521,0.0,0.0,0.0,0.0,0.0,0.0,0.0,0.0,0.0,0.0,0.0,0.0,0.0,0.0,0.0,2444.6663496669967,2434.087345476612,2435.3864608298395,2444.08289949918,2442.635625197971,2438.3863910466443,2438.668606359197,2442.888477798234,45.212765957446805,-0.13222471407296693,2.824324212640359,0.061734280816637524
181,1.8200000000000014,8.20556666349431,6.07911284810322,1.1556480705775496,0.4722996365889994,0.2763123392231779,-0.5049342036476481,0.6675522409951374,8.981961329198635,3.7611988445111737,-2.3407936057487406,-0.10542802875653327,3.0111664694419282,0.07004230716378258,-8.150957560690841,-44.99881000396755,5.53259054602373,0.0,0.0,0.0,0.0,0.0,0.0,0.0,0.0,0.0,0.0,0.0,0.0,0.0,0.0,0.0,2468.1874341493713,2446.6797737913384,2448.4282252121975,2464.8273071807885,2464.4854221722103,2452.2568568611164,2452.565390293952,2462.4619623056183,45.006480085404334,-0.40256394053056294,2.8501427977406872,0.10291186026345439
182,1.8300000000000014,8.294966597690618,6.114477984615603,1.1325422204426039,0.4796591892486875,0.26594035911532965,-0.49834451728049234,0.6714577646132142,8.897018707500425,3.312475822329188,-2.2783177420094605,-0.11844242551868724,2.9269370372099197,0.06906497500569725,-8.760462747076758,-44.655664224082955,6.785568477687853,0.0,0.0,0.0,0.0,0.0,0.0,0.0,0.0,0.0,0.0,0.0,0.0,0.0,0.0,0.0,2473.835522904634,2460.7631767646,2460.8968343432844,2471.3384887708576,2472.839396788705,2462.730278334814,2462.479865555836,2470.759912535965,44.691377545873024,-0.6491787286579808,2.564067730216513,0.13839297333738576
183,1.8400000000000014,8.383488453972188,6.14538787322371,1.1101172954539202,0.48687837290405683,0.25550553749987753,-0.4920725502498046,0.6749303486996645,8.806408321696331,2.8709025120017237,-2.204988031328763,-0.26564679741387376,2.892388619271885,0.07082513729516521,-9.321923543618382,-43.79811093561114,7.790299514506049,0.0,0.0,0.0,0.0,0.0,0.0,0.0,0.0,0.0,0.0,0.0,0.0,0.0,0.0,0.0,2467.1852512165297,2451.540070863584,2467.1329415722084,2461.343871759418,2463.7603130650127,2454.282487319034,2464.3556881864833,2463.8748378456835,44.39329223969679,-0.7549365433529697,2.17088379216537,0.15360027284450992
184,1.8500000000000014,8.471075901562468,6.171928783179061,1.0884727120898023,0.4939603894912128,0.2449263153415129,-0.48651588220056563,0.677728950269593,8.710098773166942,2.438856890304347,-2.1224936770276215,-0.457716672926423,2.7317945264222923,0.07595302114915851,-9.903937120355977,-42.813819404509346,8.643451610716113,0.0,0.0,0.0,0.0,0.0,0.0,0.0,0.0,0.0,0.0,0.0,0.0,0.0,0.0,0.0,2465.0659551881213,2431.552600239355,2458.481113148371,2458.140316337969,2457.182962705156,2438.704993766014,2458.1192877882268,2457.6966409186216,44.192592633215405,-0.8675139690502411,1.807360106382054,0.16572585224143266
185,1.8600000000000014,8.557670672372392,6.194197865701974,1.0676930902010924,0.5006093755222496,0.23460425330953708,-0.4819775234421451,0.6797416894415661,8.60784886059023,2.016481022745309,-2.032233646149801,-0.6027819789519937,2.4629660768213375,0.08253774437520332,-10.502123599790636,-41.862139117940785,9.354368262907808,0.0,0.0,0.0,0.0,0.0,0.0,0.0,0.0,0.0,0.0,0.0,0.0,0.0,0.0,0.0,2461.676499323203,2416.806607363379,2443.1226952124166,2458.663450360695,2452.760572664861,2425.2803412390767,2446.2710935135997,2454.559844140604,44.05996957289583,-0.9805094390999937,1.4599511507712168,0.17527789936303095
186,1.8700000000000014,8.643212790754491,6.212287509081268,1.0478496296748692,0.5066140373660617,0.22487362909642486,-0.47857073475132744,0.680987606289745,8.499563676423929,1.6027720561156618,-1.9354731022958231,-0.7334834139644685,2.1523196215216895,0.0897190593420657,-11.104870529250022,-41.038919307692545,9.94276775329106,0.0,0.0,0.0,0.0,0.0,0.0,0.0,0.0,0.0,0.0,0.0,0.0,0.0,0.0,0.0,2457.746777388006,2408.4965319508665,2433.659017294547,2457.6454292465155,2448.956930884709,2417.1720077463688,2437.7055836912905,2452.860287400947,43.850493772225654,-1.1198564008704455,1.0937435586698216,0.19059924036521367
187,1.8800000000000014,8.727641906821772,6.226278353262899,1.0290009514537861,0.5119033710968925,0.21586799970553847,-0.47635110830289445,0.6815024335843349,8.385259481590383,1.1965372619299126,-1.8335013799523998,-0.8558016163814198,1.8249749753611577,0.09721359017721663,-11.702397307230328,-40.333989687166834,10.400112611556711,0.0,0.0,0.0,0.0,0.0,0.0,0.0,0.0,0.0,0.0,0.0,0.0,0.0,0.0,0.0,2454.5060092517388,2403.820144651356,2428.4064068635116,2455.7470642079547,2445.849420388035,2412.593518095826,2432.663114114694,2450.915024054719,43.58507983972043,-1.2307145703766418,0.7020890634445298,0.18751501872477996
188,1.8900000000000015,8.810898884748504,6.236242588602043,1.0111908610345866,0.5164474249450569,0.20764641212075227,-0.47538783776467264,0.6813012758731837,8.265187350847711,0.7974265131371622,-1.7280709381129016,-0.9872043520466947,1.4788975195318876,0.10538746970004689,-12.267352478540161,-39.63591537348221,10.664652988116696,0.0,0.0,0.0,0.0,0.0,0.0,0.0,0.0,0.0,0.0,0.0,0.0,0.0,0.0,0.0,2449.5771797069897,2396.131231145027,2422.489162991351,2451.426908855635,2440.2514675144025,2405.4015225943854,2426.764572567276,2446.3936973002787,43.41484601316882,-1.3003756739502028,0.31237319307397804,0.17717724948224248
189,1.9000000000000015,8.892927681598229,6.242250611517855,0.994444380846933,0.5202035320390348,0.2002832624804602,-0.4757451176115394,0.6803980328403946,8.139680134060844,0.4052372992743735,-1.6210897204035846,-1.1073745617099309,1.1110622778465138,0.11310130817924798,-12.79680473329492,-38.965605286074286,10.739290879722807,0.0,0.0,0.0,0.0,0.0,0.0,0.0,0.0,0.0,0.0,0.0,0.0,0.0,0.0,0.0,2444.112551032127,2388.590726926099,2412.814701566087,2444.9229584292207,2434.504065346457,2398.1114266493787,2417.6449282777744,2439.0824637106634,43.34429068546011,-1.3379489604204848,-0.05160545055625748,0.17095626312973378
190,1.9100000000000015,8.973674982362775,6.244366520999873,0.9787694990941407,0.5231226905746376,0.19388299113009788,-0.4774133404480478,0.6788435303651605,8.008913629946383,0.01875685282469409,-1.513957670976202,-1.2017829842903456,0.7333352029480447,0.11940024929591667,-13.31319799720454,-38.45220759635893,10.694148602112596,0.0,0.0,0.0,0.0,0.0,0.0,0.0,0.0,0.0,0.0,0.0,0.0,0.0,0.0,0.0,2440.2980281173786,2385.3809259569143,2404.833293100567,2440.4925622766314,2431.183451918687,2394.6312816239247,2410.482999242898,2434.104031586117,43.33284180749963,-1.373261049840226,-0.3780830882845942,0.16715459781208417
191,1.9200000000000015,9.053088865954813,6.242639214323692,0.9641620880274877,0.52517993315884,0.188522039729572,-0.48031203438377645,0.6767169481914841,7.873029568944914,-0.36366667643060513,-1.4077785860424912,-1.2679025193912914,0.3626897332598359,0.12453283785896636,-13.812928546556691,-38.10638717252274,10.544490408469498,0.0,0.0,0.0,0.0,0.0,0.0,0.0,0.0,0.0,0.0,0.0,0.0,0.0,0.0,0.0,2437.5918873573096,2385.8408880508637,2400.7277184284694,2438.465871719908,2429.358083139663,2394.368555690192,2406.8524820676057,2431.971661263455,43.34427377758376,-1.4259173501192284,-0.6906910192658826,0.16720211627552078
192,1.9300000000000015,9.131119317730805,6.237101873686539,0.950607101934845,0.5263886849476589,0.18420573288768063,-0.4843358395345426,0.6740934615264835,7.7322780604412955,-0.7434569098053597,-1.303662630683488,-1.3193013203730892,0.013321426543676386,0.12894634652600998,-14.284134058917708,-37.89221661045905,10.284138721486924,0.0,0.0,0.0,0.0,0.0,0.0,0.0,0.0,0.0,0.0,0.0,0.0,0.0,0.0,0.0,2435.8876950737954,2388.1685648495622,2399.9871372222574,2437.032654455161,2428.4670380216085,2395.9663567199686,2405.913324612132,2430.949419391662,43.388896910777305,-1.4728078409116068,-0.9774939716690092,0.16626339252493263
193,1.9400000000000015,9.207719334492904,6.227775273582323,0.9380780718613179,0.5267828156207351,0.180882063901253,-0.48941274316506644,0.6710117070164712,7.587003390472263,-1.1216715139612978,-1.2027875504781076,-1.3718654991091335,-0.31902215375706305,0.13308768784501956,-14.719487533659148,-37.773038079611965,9.904964765454993,0.0,0.0,0.0,0.0,0.0,0.0,0.0,0.0,0.0,0.0,0.0,0.0,0.0,0.0,0.0,2435.343671045286,2390.0059804912653,2400.953267941984,2435.955475845023,2428.17820577443,2397.564822049245,2406.494120973244,2430.3532610737643,43.47393690512681,-1.4938521847545683,-1.2316365604281048,0.16323807386308525
194,1.9500000000000015,9.282845339626983,6.214670346393306,0.9265368600354558,0.526397007221163,0.17848282199929025,-0.49548399505408625,0.667492085110389,7.437528300285021,-1.499273952683022,-1.1062829796999174,-1.4212082632262775,-0.629749079268328,0.13703930532565253,-15.124339698790124,-37.74886627828033,9.416907571601074,0.0,0.0,0.0,0.0,0.0,0.0,0.0,0.0,0.0,0.0,0.0,0.0,0.0,0.0,0.0,2435.59553875092,2392.9744148258087,2402.9874653382994,2435.545077621337,2428.945698435871,2400.084826366964,2408.1517743592167,2430.400986769628,43.55254303716276,-1.4466817369025247,-1.5038156953609156,0.1535999203000646
195,1.9600000000000015,9.356456751342245,6.197788432745098,0.9159345467668711,0.5252683648535593,0.176944180825275,-0.5024479310794514,0.663573641964567,7.284133505020764,-1.877215349627757,-1.015172844255392,-1.45586024949441,-0.9136267478125075,0.1406370620454851,-15.501536932543303,-37.81756521645585,8.831530421384848,0.0,0.0,0.0,0.0,0.0,0.0,0.0,0.0,0.0,0.0,0.0,0.0,0.0,0.0,0.0,2436.316700473009,2397.9979041110746,2405.834623366093,2436.265020128475,2430.583029414997,2404.268811080258,2410.7730137708795,2431.4514186059673,43.6703518634671,-1.4027109391841697,-1.7162583833707648,0.14660249505414502
