,t,px,py,pz,qw,qx,qy,qz,vx,vy,vz,omex,omey,omez,accx,accy,accz,taux,tauy,tauz,jerkx,jerky,jerkz,snapx,snapy,snapz,bomex,bomey,bomez,baccx,baccy,baccz,mot1,mot2,mot3,mot4,motdex1,motdex2,motdex3,motdex4,f1,f2,f3,f4
1,0.02,-5.690573287771964,3.6634165210983265,0.4513320321451386,1.0,1.2165270103623684e-27,5.303110032292305e-28,3.800941958135414e-28,-2.1826085210965345e-25,-3.4173446873221575e-26,-0.09785630089911697,-4.141282798647678e-26,2.3232383638905356e-26,-9.193392323964714e-27,3.366120631536443e-26,8.799515720600844e-27,-9.766781404808203,0.0,0.0,0.0,0.0,0.0,0.0,0.0,0.0,0.0,0.0,0.0,0.0,0.0,0.0,0.0,0.0,0.0,0.0,0.0,0.0,0.0,0.0,0.0,14.561744093541572,10.0,3.5325100217344207,0.26955746525423663
2,0.03,-5.6905731181825026,3.663415141648085,0.45031708253740704,0.9999649258604503,0.008285445568286436,0.001205751303751304,-0.00021119761517094022,9.224534595342978e-05,-0.0007058465122645755,-0.07502376280460868,4.251313087411058,0.7656424971289661,-0.1168992818397647,0.03308359040284789,-0.2340937872570999,6.357210263721686,0.0,0.0,0.0,0.0,0.0,0.0,0.0,0.0,0.0,0.0,0.0,0.0,0.0,0.0,0.0,0.0,2154.628706701698,1000.5946549445289,1525.79494689339,0.0,1910.8158604154796,1522.0702904836785,1278.4585499037405,14.561744093541572,10.0,3.5325100217344207,0.26955746525423663
3,0.04,-5.690567626640505,3.663383307550609,0.44982135844991505,0.9992694625484957,0.037241154396030596,0.008541505453082316,-0.0008248162744894799,0.0013579700247338203,-0.007031834615704089,-0.025769771359305107,7.036103448034931,2.0206417544920656,-0.12219608221471706,0.23235156513852864,-1.0282204600820348,4.674418584280874,0.0,0.0,0.0,0.0,0.0,0.0,0.0,0.0,0.0,0.0,0.0,0.0,0.0,0.0,0.0,715.3947100771718,1689.8055907291775,1303.1064010945584,1494.017469561084,852.2534705281189,1621.798535181973,1327.3984387205428,1485.410584580941,14.561744093541572,10.0,3.5325100217344207,0.26955746525423663
4,0.05,-5.6905364357255594,3.6632410827372577,0.4497950347600106,0.996861923202252,0.07648068418054704,0.02038325125305899,-0.0012385819060078615,0.0054492832684952,-0.02330734271690725,0.02031298896134065,8.50056348944069,2.6738744738527105,-0.09074144583417212,0.5680825278652829,-2.150435756363967,4.55126116784477,0.0,0.0,0.0,0.0,0.0,0.0,0.0,0.0,0.0,0.0,0.0,0.0,0.0,0.0,0.0,1034.8877286286877,1515.1554820829367,1377.5984212863493,1431.6907980003514,1087.8818285189084,1482.546516870683,1380.6952532112107,1427.321707570314,14.561744093541572,10.0,3.5325100217344207,0.26955746525423663
5,0.060000000000000005,-5.690446011255426,3.6628767129522983,0.4502212914110714,0.992067444069625,0.1208224370595289,0.03467075580132984,-0.001436597480950635,0.013312940260588251,-0.05167468899002108,0.0644680761838521,9.241640358791878,3.0454221811283606,-0.06975553317034772,0.9716874638913374,-3.409978107982506,4.278598748287607,0.0,0.0,0.0,0.0,0.0,0.0,0.0,0.0,0.0,0.0,0.0,0.0,0.0,0.0,0.0,1171.081799606832,1421.2889336299224,1394.5120438381045,1409.3100825587424,1197.0594811361188,1401.9577601816027,1396.778492801128,1405.5499158640232,18.415656989091534,5.5238273034038095,0.6761806125381851,-0.135438390629893
6,0.07,-5.690256071682946,3.6621645990857346,0.4510722403257367,0.9845819332906774,0.16753936056429822,0.050267447114090945,-0.0014707344866202786,0.025398676277615145,-0.09291587842120685,0.10497793592047816,9.615904056212958,3.2557396144322737,-0.05632553964707766,1.4047603197736707,-4.70946899813536,3.8405807822284586,0.0,0.0,0.0,0.0,0.0,0.0,0.0,0.0,0.0,0.0,0.0,0.0,0.0,0.0,0.0,1236.4527415404316,1370.0155135669565,1399.3704798798722,1400.1117734255695,1249.8972115144857,1359.0631231310877,1400.1095294586385,1398.3545259200334,24.436070392519404,7.920399214358827,0.9775982503347592,-0.06735312963256455
7,0.08,-5.689913920596009,3.6609433368071027,0.4523866206459702,0.975831344417204,0.20901200392255212,0.06375431837602286,-0.001598861344833869,0.04428171355328266,-0.15530564548605966,0.16156794812116948,7.402937608280481,2.1285666663529677,-0.06624851599811095,2.1655421527561614,-7.12872189028127,6.199273378108966,0.0,0.0,0.0,0.0,0.0,0.0,0.0,0.0,0.0,0.0,0.0,0.0,0.0,0.0,0.0,1733.1973672112981,1198.763580754482,1438.1646835604174,1565.9866214399165,1613.8944327996803,1442.725294474693,1444.5903527006349,1578.1887177335914,27.319718826823742,7.217923645454073,1.2605307307736469,0.07354070646119025
8,0.09,-5.689335032061558,3.6589379381387825,0.45444909927720506,0.9664929582576581,0.2461544537340461,0.07275519067567505,-0.0024553563896605427,0.07332312551864963,-0.2524663833618683,0.25817394554173706,7.791488807717664,1.6411285685831865,-0.07394651402716694,3.2999910409886866,-11.232444719741357,10.920030259119418,0.0,0.0,0.0,0.0,0.0,0.0,0.0,0.0,0.0,0.0,0.0,0.0,0.0,0.0,0.0,1814.7196565240374,1654.8088228541155,1699.1922285484063,1779.0067373476554,1828.7078400118444,1672.6338595402071,1720.4700840547773,1786.1099499549218,28.579955620203204,6.375633195503147,1.1706976313313797,0.108543632388746
9,0.09999999999999999,-5.688418026406647,3.655775516382698,0.4576358509094044,0.95586261754418,0.2826505298722981,0.08013582920182287,-0.0036855423799165834,0.11123017641750155,-0.3850773112610354,0.38122850797340946,7.473555480388794,1.4731379689336968,-0.07271362029344687,4.0460797267233835,-14.441293439691528,12.51989636412848,0.0,0.0,0.0,0.0,0.0,0.0,0.0,0.0,0.0,0.0,0.0,0.0,0.0,0.0,0.0,1859.70120592486,1805.9292827039358,1854.7371989406302,1870.2944322610933,1866.0394919967528,1809.814937078078,1861.4443821724574,1876.2025880827644,29.60452712058724,5.242883240768169,0.9432685005531305,0.14571464421551242
10,0.10999999999999999,-5.687092328009993,3.651150171234872,0.4620825052094567,0.9445547361045136,0.31665281875372886,0.08673755853158074,-0.004892731121915372,0.1546442621836325,-0.5437329868581624,0.5076248716804219,6.892434421931454,1.3371717668695555,-0.06095127540243383,4.511953487318531,-16.774055242956166,12.372264899267293,0.0,0.0,0.0,0.0,0.0,0.0,0.0,0.0,0.0,0.0,0.0,0.0,0.0,0.0,0.0,1910.2906525064384,1839.8576167429114,1919.3605061999833,1902.1908411339386,1899.5255085715341,1856.8265213881298,1914.7456779586469,1911.6299730777614,30.79849468589471,3.928499495531355,0.6463432648501399,0.16473189786365855
11,0.11999999999999998,-5.685311318476057,3.644828920108978,0.46777503447517327,0.9333366359707675,0.3468278404133438,0.09250832545903169,-0.005948343446146293,0.2021634273238487,-0.7237668700618468,0.6299470829313588,6.030391869771367,1.1622096982572658,-0.043137536756448956,4.891944731267111,-18.788644847522185,11.885251023299292,0.0,0.0,0.0,0.0,0.0,0.0,0.0,0.0,0.0,0.0,0.0,0.0,0.0,0.0,0.0,1959.3705747580968,1853.9815274594305,1964.162448210248,1929.2499496417252,1941.1791362926474,1878.8559662203227,1955.6948008425645,1941.3794504016232,31.76775701044099,3.1405219431548135,0.4901159930205011,0.1318932051226153
12,0.12999999999999998,-5.683036187881256,3.6366072590691996,0.47466892559500484,0.9230644444139231,0.3720869060516066,0.09724777553032553,-0.006799702799535902,0.25343566742873935,-0.9236243836244065,0.7481269008902299,4.9384132543193875,0.9343528445792747,-0.021632357247134817,5.254127183134033,-20.69956024066355,11.530979123719254,0.0,0.0,0.0,0.0,0.0,0.0,0.0,0.0,0.0,0.0,0.0,0.0,0.0,0.0,0.0,2013.1800000116898,1876.1047216959719,2007.1831151805272,1961.7512997749957,1990.5287108532707,1907.3766926480632,1996.653787303428,1976.2736547878042,31.733398959364443,1.8790782512151087,0.15046237067844942,0.1282965819625907
13,0.13999999999999999,-5.6802317400650395,3.6262979794829278,0.4827252694051521,0.9141532827857435,0.39252922185385175,0.1009398430162478,-0.007465497619937532,0.30789744554792936,-1.14072340546166,0.8623613667800065,4.021738017108171,0.7406360582828598,-0.0034463686852298225,5.542032230805516,-22.283894497102885,11.13740960730436,0.0,0.0,0.0,0.0,0.0,0.0,0.0,0.0,0.0,0.0,0.0,0.0,0.0,0.0,0.0,2044.2301958741152,1919.262198549597,2033.7197358563335,1987.6654433021051,2025.7018692420645,1944.3564829655302,2023.2807036848683,2000.6217941702123,30.974006388984613,0.4660220089162883,-0.2830325939149048,0.12267487498215589
14,0.15,-5.676874296574132,3.613763489352804,0.4918869820659132,0.9070071587983328,0.4081046018529296,0.10356177203182487,-0.007975412758353787,0.36370906233867367,-1.3672672180222858,0.9685810099029082,2.9116057910134066,0.47959706343139635,0.012901792652582587,5.609526642056828,-22.932591894617048,10.259691751652422,0.0,0.0,0.0,0.0,0.0,0.0,0.0,0.0,0.0,0.0,0.0,0.0,0.0,0.0,0.0,2055.7859885097314,1911.2943276424446,2030.15663782921,1987.747275174305,2032.0160252956778,1939.5310603107835,2019.9638487992072,1997.93283542446,30.258361610994417,-0.44384538555784725,-0.34062331672112356,0.1353475145400976
15,0.16,-5.672960457850817,3.598952756864739,0.5020579683106539,0.9022597810487891,0.41817424216875804,0.10481865176626698,-0.008404815897938322,0.4188885509351286,-1.5947415225386623,1.0640387703459944,1.6449370049469947,0.14298416000477218,0.028271406783479787,5.484268193241048,-22.760122792216286,9.197735991979483,0.0,0.0,0.0,0.0,0.0,0.0,0.0,0.0,0.0,0.0,0.0,0.0,0.0,0.0,0.0,2048.894213246085,1874.2922298475357,2004.519172811299,1963.5500250217099,2019.1957689328553,1907.6377252829302,1992.5086611104837,1973.4583824867548,28.819171676869335,-1.2406795394655865,-0.33799737781031136,0.14630135276547046
16,0.17,-5.66850187078289,3.5818797087512673,0.5131378666701729,0.8999975365442198,0.42300873424867247,0.10484108966375882,-0.008740187743263976,0.4725769729246124,-1.8193115547748007,1.1508405317392207,0.5788883400241246,-0.06547344827801427,0.04224299552030869,5.315080010379614,-22.35889410475922,8.453470940284813,0.0,0.0,0.0,0.0,0.0,0.0,0.0,0.0,0.0,0.0,0.0,0.0,0.0,0.0,0.0,2013.0061999243674,1867.350558821712,1989.2218770116003,1932.696238639527,1990.2031627917142,1891.132425696637,1973.7765443503909,1946.223702731283,26.388981335151605,-1.909739423704235,-0.17469128854434574,0.1573765143828434
17,0.18000000000000002,-5.663518885532393,3.5626003540402555,0.5250411148619245,0.8999125987658684,0.42335851782755163,0.10414815611713323,-0.008834112446721106,0.5235626793239396,-2.034908721393151,1.228481918432569,-0.3501517257178361,-0.18374981619353098,0.05568598862958528,5.006287876794802,-21.23513008030331,7.525847950040854,0.0,0.0,0.0,0.0,0.0,0.0,0.0,0.0,0.0,0.0,0.0,0.0,0.0,0.0,0.0,1952.9885859032777,1837.2134200031103,1947.4544291120899,1882.7744056015756,1933.955198397193,1853.9421337930928,1931.6611439906694,1894.2851012454526,27.010035927983,-2.4029068720725464,-0.034424407319496586,0.16904504955597968
18,0.19000000000000003,-5.658046486922603,3.5412460689097185,0.5376604290166251,0.9016646605693659,0.41984907268535776,0.1032216904402541,-0.008536900387826415,0.5702325808758963,-2.2329901637601473,1.293472902219112,-1.1463992833511227,-0.17725364338840843,0.06841148752840538,4.536691491611511,-19.22540919872029,6.175188822844291,0.0,0.0,0.0,0.0,0.0,0.0,0.0,0.0,0.0,0.0,0.0,0.0,0.0,0.0,0.0,1855.7191726129925,1774.6689364014533,1874.9428725238383,1794.74342701857,1840.5121931656643,1783.2250293802601,1855.8454746725545,1806.354522089455,29.031798846504515,-2.716902634012451,0.13691277781953715,0.1796252613819409
19,0.20000000000000004,-5.652115499170678,3.5179508426409565,0.5509162715680811,0.904853081584344,0.41313731171745366,0.10246253095679825,-0.007739002785841655,0.6160704911099112,-2.426045728267015,1.3585926679703526,-1.7855214480977026,-0.11457242633042386,0.08095028540570567,4.603815099068376,-19.250858922919,6.724799457743291,0.0,0.0,0.0,0.0,0.0,0.0,0.0,0.0,0.0,0.0,0.0,0.0,0.0,0.0,0.0,1858.5083999549227,1805.8030002284042,1890.7037808072862,1811.7072585789165,1850.9746534818225,1816.0829621425778,1877.5042240132746,1826.904037708175,28.67758127237234,-2.8853469812246972,0.37211768531106004,0.1884308365980335
20,0.21000000000000005,-5.645714387991078,3.4926940091865517,0.5648809485588265,0.9090545170511956,0.40392647639247753,0.10208840328534918,-0.006422196868911156,0.6647023934380011,-2.626688634764105,1.4368217770139484,-2.256431426617866,-0.00433657835428718,0.09342833512271825,4.97182048406597,-20.247909317472335,8.345998324905901,0.0,0.0,0.0,0.0,0.0,0.0,0.0,0.0,0.0,0.0,0.0,0.0,0.0,0.0,0.0,1911.170097452988,1885.1527468091547,1951.8533815221033,1880.4136349109538,1910.2429121953514,1893.4657808351562,1943.0493403961375,1895.8352976773556,28.332710403989932,-2.93306684666251,0.6223075930810344,0.1989461105932034
21,0.22000000000000006,-5.638818861947508,3.4654291914237993,0.5796708667878264,0.9138533999146813,0.3929143247977785,0.10232013268303203,-0.004570260475060441,0.7144540685683803,-2.825118170548422,1.5216873694723305,-2.5723249647626707,0.16107183057350813,0.10585351680231336,4.9974972534592155,-19.54794210123678,8.650238814613243,0.0,0.0,0.0,0.0,0.0,0.0,0.0,0.0,0.0,0.0,0.0,0.0,0.0,0.0,0.0,1890.6003560872161,1890.5703733216114,1942.0177303062117,1873.800495725288,1890.5377377357984,1890.4551440482498,1930.8951191591918,1883.98013749257,28.549913277598495,-2.8815939360168947,0.867177207554918,0.20750056301253578
22,0.23000000000000007,-5.631424294838882,3.4362188694740277,0.5953226164147326,0.9188829265252152,0.3807440123586746,0.10336071873757607,-0.0021739860913030664,0.7645676211287145,-3.0156046276016673,1.6091190410420129,-2.7513503819978427,0.36302505580795624,0.11855333670227446,5.051616367638623,-18.713529191038525,8.894731252492072,0.0,0.0,0.0,0.0,0.0,0.0,0.0,0.0,0.0,0.0,0.0,0.0,0.0,0.0,0.0,1868.7006361641463,1890.161797329199,1928.1500782401542,1864.9187175054626,1871.7779544859277,1886.616950709881,1918.3418035617276,1873.312234279154,28.71705936572515,-2.7613296978010675,1.1129429646895015,0.2136687594231764
23,0.24000000000000007,-5.623522025313042,3.4051354258635995,0.611871292999117,0.9238476431862455,0.36798096558293636,0.10533274367905018,0.0007444843268722337,0.8162306060443699,-3.200221742890069,1.701595516590903,-2.812863100339711,0.5832795038383259,0.13149142516651455,5.258365041444724,-18.21066893361678,9.494875470609232,0.0,0.0,0.0,0.0,0.0,0.0,0.0,0.0,0.0,0.0,0.0,0.0,0.0,0.0,0.0,1867.567041224128,1904.7162331879333,1930.2929704548394,1874.6861012414136,1873.9560822961546,1899.783328775195,1923.0727199641701,1882.1193016390453,28.728604872650937,-2.5560133796995643,1.3468431653602289,0.2192802808810445
24,0.25000000000000006,-5.61509175324814,3.3722318983185873,0.6293742005952122,0.9285256848644826,0.3550956313304936,0.10830497364058544,0.004144615983869638,0.8702582848172964,-3.379556255567935,1.7999077444840257,-2.7821704848660205,0.8145941289316457,0.1443505437923265,5.519572843703302,-17.66828381514074,10.063208347911967,0.0,0.0,0.0,0.0,0.0,0.0,0.0,0.0,0.0,0.0,0.0,0.0,0.0,0.0,0.0,1867.924073170159,1916.7411453527818,1931.677223520689,1883.185198736287,1876.1416837485745,1910.0303858563204,1925.799742008404,1889.1058851599305,28.691354676571095,-2.2941446169614528,1.5618003118419597,0.22594515114004082
25,0.26000000000000006,-5.606107913246528,3.3375652505550617,0.6478848689776848,0.9327436679391401,0.3425081040838809,0.1123116195123583,0.00797174252068228,0.9269933767698468,-3.552697030056902,1.9029205742220086,-2.6619332922930186,1.0468258345907178,0.1569220070911753,5.806981448123638,-17.022555744756307,10.483772983229,0.0,0.0,0.0,0.0,0.0,0.0,0.0,0.0,0.0,0.0,0.0,0.0,0.0,0.0,0.0,1864.795371698635,1922.4049216587423,1927.573920063675,1887.2261028579617,1874.2057774308453,1914.1049647198058,1923.025211989327,1891.2657256873954,28.63989650772591,-2.0017216291408455,1.7624681819153465,0.2336377466530232
26,0.2700000000000001,-5.59654168404025,3.3012002908335534,0.6674444495409269,0.9363712388569959,0.3305917255765382,0.11734660347015541,0.012156836585216895,0.9868054349638755,-3.719198919740203,2.009535098899858,-2.469725444707623,1.2713477803317468,0.16914770922313221,6.134530470372712,-16.35867366238042,10.806188880687628,0.0,0.0,0.0,0.0,0.0,0.0,0.0,0.0,0.0,0.0,0.0,0.0,0.0,0.0,0.0,1861.3066926886106,1924.6428557760398,1921.5525844442577,1889.883735097748,1871.5985743226797,1915.3407556053537,1918.5044723944363,1892.2336811057096,28.54896759784514,-1.6996650271684388,1.933283706841641,0.23961212710989505
27,0.2800000000000001,-5.586360149490915,3.2632032385921077,0.6880846549450774,0.9393271942772241,0.319633369784261,0.12337906061803662,0.016629444147266685,1.0501276965649073,-3.8791567849635196,2.1189147393596404,-2.227115010617355,1.4854460809077228,0.1810054502431602,6.505594718450913,-15.717318192762342,11.048529638110427,0.0,0.0,0.0,0.0,0.0,0.0,0.0,0.0,0.0,0.0,0.0,0.0,0.0,0.0,0.0,1858.3948296970234,1925.0016531904098,1915.6935141842664,1891.5613317171244,1869.2250298787255,1915.1300009400948,1913.8328553060358,1892.6840206134034,28.417600586189767,-1.4126555461782901,2.0876716783812372,0.24479485671903364
28,0.2900000000000001,-5.575526281626765,3.223638520060373,0.7098285518043537,0.9415750581037116,0.30982251623518137,0.1303527917395113,0.021320602158680937,1.117327863563674,-4.032772614993194,2.2301100022121774,-1.9550525443302664,1.68044065429471,0.1922095978157188,6.909298478311898,-15.09722379972711,11.189536946780265,0.0,0.0,0.0,0.0,0.0,0.0,0.0,0.0,0.0,0.0,0.0,0.0,0.0,0.0,0.0,1856.1783033299218,1922.4210322773652,1908.5548673534618,1891.7441919815456,1866.7818027292658,1912.613266926212,1907.7704914917404,1891.6770562102854,28.28209132160904,-1.1171725572864912,2.2231469393482572,0.24965432833233042
29,0.3000000000000001,-5.56399984168485,3.182568344563726,0.7326891468956565,0.9431170899411008,0.3012445032945478,0.13819252105569949,0.026167365555615416,1.1886851455778753,-4.180298258656605,2.3420881735843495,-1.6765045842000579,1.857822662766057,0.20252546867887225,7.33776820764942,-14.504539736289068,11.227007405079092,0.0,0.0,0.0,0.0,0.0,0.0,0.0,0.0,0.0,0.0,0.0,0.0,0.0,0.0,0.0,1853.593416380116,1917.5639447921926,1901.1589750395287,1889.4789793026073,1863.7012981622454,1908.0323584685025,1900.9014610910715,1888.7869616669764,28.129039504991805,-0.827080069984951,2.3234434105416146,0.2559952818517907
30,0.3100000000000001,-5.551737898817119,3.1400516118035613,0.7566698778752562,0.9439667583077865,0.29394089221588104,0.1468246078584655,0.031113431511626967,1.264474612387062,-4.322168787672625,2.4540130334356736,-1.3892962185746944,2.016924313808647,0.21185384755109873,7.793622532930922,-13.962224656673072,11.188937033050017,0.0,0.0,0.0,0.0,0.0,0.0,0.0,0.0,0.0,0.0,0.0,0.0,0.0,0.0,0.0,1851.0481733382364,1912.1316828657223,1893.8162272098978,1886.8547174870844,1860.6789749921177,1902.9711919138524,1894.1764095747103,1885.5814558930915,27.959880246540088,-0.5602694540718249,2.4036559374445234,0.26427105199912204
31,0.3200000000000001,-5.5386949689150455,3.0961424668977258,0.7817662549866751,0.9441429073300803,0.2879349882134907,0.15615504973919964,0.03610004905465553,1.3449127144956181,-4.458859556374025,2.565085130790797,-1.1010053117897807,2.150191515915984,0.22029473287414972,8.26711057678553,-13.466500674589987,11.069840417139876,0.0,0.0,0.0,0.0,0.0,0.0,0.0,0.0,0.0,0.0,0.0,0.0,0.0,0.0,0.0,1848.7177821000867,1904.8940611847595,1885.622292954548,1884.3938936611064,1857.4659074701042,1896.4286001125884,1886.8420290034592,1882.2762110794345,27.779746887524407,-0.32217276284748353,2.4569674271209503,0.2705435585306919
32,0.3300000000000001,-5.524823838269399,3.0508903507364344,0.8079657962482705,0.9436784666288608,0.2832016252885323,0.1660743263831854,0.04107443452206398,1.4301324533378061,-4.590841610430988,2.674521724115425,-0.824455457664784,2.260464954615794,0.2281056872690165,8.750668067437628,-13.017502718068563,10.874645191344623,0.0,0.0,0.0,0.0,0.0,0.0,0.0,0.0,0.0,0.0,0.0,0.0,0.0,0.0,0.0,1845.8576359640736,1896.5350460645143,1877.8430790371422,1880.9540358434904,1853.7041794891898,1888.792709071923,1879.4942258790304,1878.4061751541192,27.56984189425342,-0.13342786759835576,2.4962630486570316,0.2756332970409816
33,0.34000000000000014,-5.510076286162295,3.0043399878272314,0.8352485620424519,0.9426179630939288,0.2796660968135621,0.17647276798260583,0.045995783570647215,1.520204955021905,-4.7185858644731935,2.7816211703613183,-0.5681869489872202,2.345838681074258,0.23521698422607587,9.238576685874689,-12.614712090303293,10.61297398707417,0.0,0.0,0.0,0.0,0.0,0.0,0.0,0.0,0.0,0.0,0.0,0.0,0.0,0.0,0.0,1843.3469425038893,1887.28932722934,1869.8433178381724,1876.7044959602238,1850.0328821831947,1880.567793829719,1871.8424863078446,1873.793391334114,27.385344457659595,0.027405779268418418,2.525074971085995,0.2791543712416581
34,0.35000000000000014,-5.494403893477168,2.9565317969566363,0.8635876046038379,0.9410199639672899,0.27719468353749377,0.187243198603163,0.050838168834110145,1.6150875631800818,-4.842460870993116,2.885660751892829,-0.34742396847121687,2.4112749518319956,0.24155211765514686,9.717493777308128,-12.243366746202966,10.278767270205158,0.0,0.0,0.0,0.0,0.0,0.0,0.0,0.0,0.0,0.0,0.0,0.0,0.0,0.0,0.0,1840.05447327875,1876.9206158878474,1861.8964479647916,1870.3330730676862,1845.5070408046843,1871.226613396616,1863.7428816366921,1867.4960492848534,27.20439855065107,0.16797906409896837,2.5213824379924983,0.2837155656973586
35,0.36000000000000015,-5.477758583210509,2.9075023058757394,0.8929499953317214,0.9389429557433627,0.27563390564478923,0.19829760261670523,0.055588998150572805,1.714795383718824,-4.962925310207805,2.9862454041244493,-0.15735578880919296,2.4608407631637483,0.24706741419225933,10.201150705096529,-11.92169785037045,9.919122118246637,0.0,0.0,0.0,0.0,0.0,0.0,0.0,0.0,0.0,0.0,0.0,0.0,0.0,0.0,0.0,1837.2087054996034,1867.7262381819803,1855.1231159283352,1864.1155358180715,1841.6747663246663,1863.0141921461507,1856.8265166974802,1861.5219500581693,27.02796925400059,0.2748069778187373,2.506210931051003,0.28967581484606947
36,0.37000000000000016,-5.4600921237542845,2.8572835319115852,0.9232996453452151,0.9364402563061754,0.2748539037771292,0.20953995236920384,0.060232767733260244,1.819306881409065,-5.080372996603343,3.083057367435672,0.007504483388355108,2.4869407601088565,0.2519451796560724,10.678597501817544,-11.634284873070833,9.526754747574362,0.0,0.0,0.0,0.0,0.0,0.0,0.0,0.0,0.0,0.0,0.0,0.0,0.0,0.0,0.0,1834.8597427726704,1857.951643159211,1847.7094294183955,1859.125983517255,1838.065578116464,1854.4214143190502,1849.760818733172,1856.2479109944927,26.856906035667873,0.36108551603883465,2.4754135877080623,0.2924898877880472
37,0.38000000000000017,-5.441356889745551,2.8059040395196555,0.9545973169436466,0.9335686320174453,0.27472582938905293,0.22086616450943575,0.06475697147383976,1.9285316901275233,-5.195114722353232,3.1758055387855224,0.14228487649575736,2.495229986852195,0.2565065336681971,11.144910158657595,-11.375242070757352,9.108241343973589,0.0,0.0,0.0,0.0,0.0,0.0,0.0,0.0,0.0,0.0,0.0,0.0,0.0,0.0,0.0,1832.0501608324107,1848.5000724438262,1841.1893514384149,1853.8982290049773,1834.2666047360965,1845.9111938048127,1843.2086555445585,1851.0931127918814,26.669697112158133,0.40503598207669134,2.433570265363006,0.2933687798353432
38,0.3900000000000002,-5.421506368687839,2.7533895789670644,0.9868012022848142,0.9303825304320901,0.27512630735494276,0.23218789500516337,0.06915665897862584,2.0423399493521175,-5.30740387046773,3.2642671086707713,0.2523224043105724,2.4864378439107706,0.2606374995601248,11.596636955621964,-11.13932050364852,8.670330611542987,0.0,0.0,0.0,0.0,0.0,0.0,0.0,0.0,0.0,0.0,0.0,0.0,0.0,0.0,0.0,1829.422711381486,1839.714455072809,1834.580225515225,1848.5416570780626,1830.7020399522362,1838.0653722190812,1836.6256165846135,1845.7215589437303,26.532006496981694,0.41473284729999144,2.389304041767094,0.29138858426672604
39,0.4000000000000002,-5.400495796350667,2.6997639019794657,1.0198671539101596,0.9269421375298125,0.2759178429002916,0.24342322066918232,0.07343536804534287,2.160497725642638,-5.417371238122029,3.3481751886000266,0.32793989413970054,2.463265161322506,0.2641856935377981,12.02079086298724,-10.911088497548072,8.204807042084372,0.0,0.0,0.0,0.0,0.0,0.0,0.0,0.0,0.0,0.0,0.0,0.0,0.0,0.0,0.0,1826.4089532939338,1830.534003242686,1827.8151785880184,1841.9687639040417,1826.6684119289857,1829.8258847737175,1829.6352996639787,1839.3256003972162,26.406973399133832,0.4096642448494084,2.3181638576742563,0.2903139075245693
40,0.4100000000000002,-5.378282250690177,2.6450491317985834,1.0537496793372194,0.9233113589920084,0.27694597235832863,0.2545070754523271,0.07760935056766054,2.282931485828001,-5.525267294363563,3.4276144832926705,0.36964018458887304,2.430988133487228,0.26698260739460455,12.445164746139437,-10.712825383714097,7.762711995524807,0.0,0.0,0.0,0.0,0.0,0.0,0.0,0.0,0.0,0.0,0.0,0.0,0.0,0.0,0.0,1824.7549319586105,1823.5922012495432,1823.0662434985363,1836.073967069255,1824.2501270534667,1823.7925594454055,1824.5343971323848,1833.9487762062256,26.26871414312845,0.3590352074771396,2.2602929376947976,0.29267028564078157
41,0.4200000000000002,-5.354823392528489,2.5892650350719526,1.0884047001614723,0.919550977528195,0.27808507342418987,0.26537056325421166,0.08168938623680821,2.4095325026533163,-5.631250703189969,3.502681852001478,0.38778686547363594,2.3814385656090966,0.26917263863503516,12.853659426209862,-10.52427971174641,7.32647358213967,0.0,0.0,0.0,0.0,0.0,0.0,0.0,0.0,0.0,0.0,0.0,0.0,0.0,0.0,0.0,1823.8907161232623,1816.514206393069,1817.8410577283994,1831.8945596282783,1822.32906820155,1817.7855877170994,1819.5122236293755,1829.6594952646417,26.135375904721847,0.31764338500448747,2.199357151187527,0.29189510625938736
42,0.4300000000000002,-5.330078782929064,2.532430690189205,1.1237883628177299,0.91572516921051,0.2792000012392764,0.2759541048784172,0.08569775833195757,2.5400314764606353,-5.7353044671761895,3.573334137207313,0.3700522124519645,2.3286300141949328,0.27126589673731993,13.230983081604197,-10.328144446723364,6.883856639932073,0.0,0.0,0.0,0.0,0.0,0.0,0.0,0.0,0.0,0.0,0.0,0.0,0.0,0.0,0.0,1821.1589449080634,1809.6880177085704,1814.1968108658743,1826.0699252402173,1819.0208108233878,1811.4654403681066,1815.187102984895,1824.5025947554038,25.992763567963983,0.2647420479673096,2.1262927553174875,0.288594730416958
43,0.4400000000000002,-5.3040107600799535,2.474565664197097,1.1598566262911285,0.9118780247541787,0.28019487743613547,0.28623507561551326,0.08965924445559492,2.6741773895495835,-5.8373795265057025,3.639616810766927,0.3412570509495134,2.272127574318933,0.27318064366886985,13.585527296803068,-10.12789431598371,6.450489795092551,0.0,0.0,0.0,0.0,0.0,0.0,0.0,0.0,0.0,0.0,0.0,0.0,0.0,0.0,0.0,1818.0752060831037,1804.0620693118108,1809.81479898793,1820.655199143772,1815.581815329489,1806.2317408340746,1810.6237898809636,1819.2623736321113,25.909852474768638,0.16976713237231722,2.0646397396221854,0.28178352831562886
44,0.45000000000000023,-5.276584199720019,2.415690142702496,1.1965660635771846,0.9080445466679907,0.28101916759935736,0.2961848990049435,0.09358330144699319,2.811690133840768,-5.93738540429018,3.701576543233177,0.3001292718833583,2.2082320140641856,0.2746239490491054,13.909881897432808,-9.916417655798426,6.02098565813769,0.0,0.0,0.0,0.0,0.0,0.0,0.0,0.0,0.0,0.0,0.0,0.0,0.0,0.0,0.0,1815.059524850463,1798.2051284726526,1804.221135152281,1815.3568030988056,1812.1072846102447,1800.8116807071478,1805.119861102613,1813.8448033152627,25.836823383021414,0.05975340017140367,1.989228146086811,0.2765642308989924
45,0.46000000000000024,-5.247765845932086,2.3558245692404807,1.2338749480485032,0.9042701307376172,0.281581566089153,0.30578090499439053,0.0974955918765778,2.952544882668012,-6.035408946902204,3.7595830315773453,0.23057344079419193,2.145508614400928,0.27527804414902796,14.242791838932511,-9.719744379477646,5.641848644051706,0.0,0.0,0.0,0.0,0.0,0.0,0.0,0.0,0.0,0.0,0.0,0.0,0.0,0.0,0.0,1813.9530823984182,1794.9487117552007,1801.6345064904076,1810.3546954149774,1810.753368375301,1798.0046890130484,1802.017554383488,1809.5644578779506,25.730629721138627,-0.09472060120469113,1.9437574454662505,0.27510267221214724
46,0.47000000000000025,-5.217522523876362,2.294988693070255,1.271745490607036,0.9006024619691178,0.2817794166031488,0.31500444736596067,0.10142861535887521,3.096657313396648,-6.13142888686438,3.813947804161996,0.14054886047336373,2.076913038102918,0.27529446284004744,14.560662546194258,-9.5138683392193,5.287557543913302,0.0,0.0,0.0,0.0,0.0,0.0,0.0,0.0,0.0,0.0,0.0,0.0,0.0,0.0,0.0,1813.6214324942366,1791.302610550885,1799.0170846830508,1806.65486121304,1809.7365100476168,1795.0571037969219,1799.2679916277707,1806.0902599476149,25.624101908708656,-0.20744739744729795,1.904461802944914,0.270472659640741
47,0.48000000000000026,-5.18582318420791,2.2332036408829126,1.3101417846890413,0.8970884333734689,0.2814897663840301,0.3238518471077673,0.10543166153242026,3.243684780787251,-6.225191313087461,3.864740659139288,0.01684689084823565,2.018811854964253,0.2751972755213261,14.837714312045058,-9.275053866229399,4.9349759721835085,0.0,0.0,0.0,0.0,0.0,0.0,0.0,0.0,0.0,0.0,0.0,0.0,0.0,0.0,0.0,1810.563920652159,1787.3760061994876,1797.712149883476,1800.3149938578747,1806.5251074300197,1791.1408796703445,1796.8318051060592,1800.8225343877557,25.508295859837208,-0.29901974466100334,1.8498353943786314,0.26387199390375876
48,0.49000000000000027,-5.152640145825998,2.1704933391270846,1.3490288127665675,0.8937362314675561,0.2806649531100184,0.3323609409500981,0.10953966217168727,3.3933632103091527,-6.316441861952953,3.912130546171747,-0.09933892740308647,1.96869095778994,0.27487452851409416,15.09411604271138,-9.014002171264579,4.604239991699011,0.0,0.0,0.0,0.0,0.0,0.0,0.0,0.0,0.0,0.0,0.0,0.0,0.0,0.0,0.0,1806.619897195999,1784.8140984836389,1794.7371906565152,1794.926557098445,1802.829376969239,1788.3211231153493,1793.6426260023054,1795.6219445219695,25.46279596911002,-0.44940103517759156,1.8221793029153772,0.25288199811663936
49,0.5000000000000002,-5.117948039805468,2.106884068093702,1.3883734736727593,0.8905339817179997,0.2793509877852601,0.34055029258288644,0.11374423612032147,3.545459207364377,-6.404948072900508,3.9562943860355166,-0.20242098911601206,1.9162656894518681,0.27402996717113076,15.326212524079619,-8.730160811707854,4.289426518938821,0.0,0.0,0.0,0.0,0.0,0.0,0.0,0.0,0.0,0.0,0.0,0.0,0.0,0.0,0.0,1802.9214527499312,1781.6999229189719,1789.437533805977,1790.870907207156,1799.2172432558314,1785.0712076788939,1788.8678569942379,1791.0148462719806,25.422493106625947,-0.6150543234151629,1.804210837906486,0.24487682758210397
50,0.5100000000000002,-5.081722456973162,2.042403479788245,1.4281456014679408,0.8874923356401181,0.2775102953256939,0.34843283378206674,0.11806756756575049,3.7000966977345984,-6.490711151488173,3.997719365962448,-0.3316195528584602,1.8750177098772927,0.2722511626527704,15.585607155928383,-8.453485363549618,4.036364130580061,0.0,0.0,0.0,0.0,0.0,0.0,0.0,0.0,0.0,0.0,0.0,0.0,0.0,0.0,0.0,1801.7677128653274,1781.4438912778535,1788.5411739569288,1786.2912742182295,1798.2989651734665,1784.8110510995384,1787.2324847008913,1787.4358345083626,25.33161542568818,-0.8104435986713341,1.8327933317480802,0.24140860365255448
51,0.5200000000000002,-5.043937623540659,1.977079454811934,1.4683199162007405,0.8846251599384869,0.2750449964777846,0.3560436022618928,0.12256234986616917,3.8572959992831195,-6.5735969957064,4.036777192892371,-0.479349706723286,1.8437454011849954,0.26978795017899293,15.837712177756202,-8.154642356529074,3.8113604555745084,0.0,0.0,0.0,0.0,0.0,0.0,0.0,0.0,0.0,0.0,0.0,0.0,0.0,0.0,0.0,1800.760896922154,1780.8667853622967,1788.5973630281867,1782.0739690397838,1797.1240737852654,1784.368263995749,1786.582235690041,1784.0352550758007,25.227609947368023,-0.9611245865762564,1.8847045641971805,0.23502062385154593
52,0.5300000000000002,-5.004569382766327,1.9109426178728752,1.5088731979496603,0.8819304970404861,0.27184744212673484,0.3634461241231305,0.12729682422962033,4.016713178609278,-6.653194151874402,4.073512116533585,-0.6518002284872494,1.83901097028533,0.2672822886991544,16.046414292506306,-7.806188020169635,3.5823660613214514,0.0,0.0,0.0,0.0,0.0,0.0,0.0,0.0,0.0,0.0,0.0,0.0,0.0,0.0,0.0,1796.0956794836814,1779.5880973487242,1789.3407520279209,1774.7901575181588,1792.8904279851383,1782.4265003330888,1785.8158752349375,1778.1816657048207,25.114099309817263,-1.0658886981186273,1.9070808912403485,0.22648672995630836
53,0.5400000000000003,-4.96359699240203,1.8440280224021461,1.5497825868553736,0.8793610128049634,0.2678861386161804,0.37074671354508054,0.13231817823513004,4.17809964535965,-6.7290851470712925,4.108021580877675,-0.8113433502845412,1.858843656748873,0.2646969110305215,16.237871324165987,-7.419005668767298,3.3666245172367937,0.0,0.0,0.0,0.0,0.0,0.0,0.0,0.0,0.0,0.0,0.0,0.0,0.0,0.0,0.0,1790.034301734859,1779.226425681486,1788.0418777189452,1767.962321578578,1787.6817355052378,1781.1493973031238,1783.8959160830884,1771.910547628624,25.087008783126855,-1.2500333588296524,1.969557190195584,0.21258562819285873
54,0.5500000000000003,-4.92100146986103,1.7763745652273477,1.5910264786312696,0.8768554517231703,0.2632454479431411,0.3780085117913199,0.13760783383907232,4.341320255373671,-6.800911568718468,4.140431227256735,-0.9418336581267784,1.8791085158392804,0.2617308635122266,16.417007669858208,-6.998381669252041,3.161957064091503,0.0,0.0,0.0,0.0,0.0,0.0,0.0,0.0,0.0,0.0,0.0,0.0,0.0,0.0,0.0,1785.3167852072697,1777.2071035987506,1782.6043793880526,1764.2033132661104,1783.2293096587325,1778.8172188903357,1779.3354251710414,1767.2066894258585,25.084924795785987,-1.3839955903807175,2.0548600803871984,0.19890902851506137
55,0.5600000000000003,-4.876763198618341,1.708023593177444,1.6325858410890977,0.8743911338334052,0.2578999360880613,0.3852604455890337,0.14318574336799597,4.506731542185758,-6.868576363554784,4.171209214732248,-1.1026314709849305,1.9184193374435337,0.25785044137605834,16.651284399531896,-6.574686929870843,3.01829436204315,0.0,0.0,0.0,0.0,0.0,0.0,0.0,0.0,0.0,0.0,0.0,0.0,0.0,0.0,0.0,1783.9550125400797,1778.5611665617166,1782.9435849958659,1759.3682216996613,1782.4081542400072,1779.9277230423256,1778.6649206148168,1763.7328952621842,25.025601996002575,-1.4803665673804933,2.2245248492825898,0.1905715819431608
56,0.5700000000000003,-4.830858481827359,1.6390175706980907,1.6744465457034468,0.8719205878271119,0.25181654123944286,0.39257802817024057,0.14908188984378198,4.674639194276083,-6.931873661929381,4.200741252613632,-1.2477658900534545,1.977708389536133,0.2530326563107052,16.90656276306246,-6.123756930366042,2.9025560461546362,0.0,0.0,0.0,0.0,0.0,0.0,0.0,0.0,0.0,0.0,0.0,0.0,0.0,0.0,0.0,1782.3804577009657,1781.9053005628846,1783.9121459079195,1756.113483967887,1781.5613854602432,1782.5722960801163,1779.1274067607967,1761.1520531027136,24.929766796495112,-1.6539647295143298,2.407287406435542,0.1807707643566652
57,0.5800000000000003,-4.7832630560798854,1.5694023214769945,1.71659604105366,0.8693327552752853,0.24505314510342877,0.4001150302211702,0.15529803370136683,4.844821127348618,-6.990336216919494,4.228929021074481,-1.3671772027954279,2.086049993633517,0.2478993230885585,17.12526692677052,-5.619283886439952,2.760716407377295,0.0,0.0,0.0,0.0,0.0,0.0,0.0,0.0,0.0,0.0,0.0,0.0,0.0,0.0,0.0,1774.4814457441687,1786.560391087802,1785.7354846556075,1749.3948346007116,1775.9310183374607,1784.7018242720728,1779.5883151834566,1755.7358933225582,24.724959033700603,-1.7975828039400155,2.526545561308966,0.16868772873154872
58,0.5900000000000003,-4.733955621759024,1.4992287189719204,1.7590196534787685,0.8665276792701524,0.23754854339787568,0.40803280341194437,0.16189410714421126,5.0170123524143095,-7.0434601351997,4.255531106481223,-1.517080456490047,2.2263394813681505,0.2426541065986554,17.322282861417904,-5.063311562797601,2.5955907446064685,0.0,0.0,0.0,0.0,0.0,0.0,0.0,0.0,0.0,0.0,0.0,0.0,0.0,0.0,0.0,1768.5258045726566,1786.8359929766589,1786.2750569654656,1741.016491090179,1770.2821264815425,1784.5507438908041,1778.9072138294687,1748.5410026675174,24.378033602447143,-2.0120856888936407,2.6741827962016056,0.1498573545830833
59,0.6000000000000003,-4.682918654497145,1.4285533014070182,1.8016993196018842,0.8634638855846164,0.22924380868253147,0.4163540490616669,0.1688984911175894,5.190615941161747,-7.090588089577504,4.28004950163821,-1.6624040356929932,2.3564039047134533,0.23719189377777208,17.44328106566595,-4.437241720789409,2.369949082485334,0.0,0.0,0.0,0.0,0.0,0.0,0.0,0.0,0.0,0.0,0.0,0.0,0.0,0.0,0.0,1763.1910412274417,1779.4859306311935,1777.8810272013832,1733.7538853409617,1763.75144787834,1778.0153175551784,1771.062147476546,1740.2825660749995,24.390178113722754,-2.226355403865517,2.8178614968078826,0.13027431265460512
60,0.6100000000000003,-4.630142916858332,1.3574396198602745,1.8446106118705312,0.860133743147196,0.22004731852643378,0.42503244448494876,0.17634211817960233,5.364604397336815,-7.130996814358108,4.301745826012017,-1.845110624098016,2.494885847385238,0.23087089362738586,17.451991217078522,-3.737327255003642,2.067433040314981,0.0,0.0,0.0,0.0,0.0,0.0,0.0,0.0,0.0,0.0,0.0,0.0,0.0,0.0,0.0,1752.9433482395063,1768.2785446083412,1766.4143315009555,1717.89704512471,1753.152391630807,1766.6689936915216,1758.321082101113,1725.2630308633204,24.664450587179342,-2.4532150039602056,3.0092989779562167,0.11556816199412619
61,0.6200000000000003,-4.575619159532509,1.285955412883169,1.887728975750936,0.856513011760005,0.20984057481208862,0.4340463861195048,0.1842718875600277,5.540614150479265,-7.164720338283588,4.32172671477561,-2.043224883469396,2.6352465859760783,0.22361405765965658,17.72763315474979,-3.0650887030976293,1.944192284161872,0.0,0.0,0.0,0.0,0.0,0.0,0.0,0.0,0.0,0.0,0.0,0.0,0.0,0.0,0.0,1754.854015003307,1768.8023396669657,1766.22328003811,1714.887263721801,1755.2124596481751,1768.2077697442417,1758.2816348063438,1723.4017084427692,24.698753740717358,-2.730921901944189,3.268650853145501,0.10184344795771602
62,0.6300000000000003,-4.519315119149645,1.2141673147327319,1.9310450350645278,0.8525449058267899,0.19853634596229747,0.44340504135348713,0.19272382360009713,5.720984626591914,-7.191730822825644,4.341480221187119,-2.2559809225465055,2.7984381706813526,0.2160508625591306,18.224330116900944,-2.374613924356339,1.956406412073619,0.0,0.0,0.0,0.0,0.0,0.0,0.0,0.0,0.0,0.0,0.0,0.0,0.0,0.0,0.0,1763.3439922812292,1780.4922270215125,1777.8572988521125,1720.2551665113888,1764.8375423045857,1779.661425474581,1769.2524216380855,1730.5675742985707,24.61058050275048,-2.9795060030550196,3.486424582291695,0.08633361342230225
63,0.6400000000000003,-4.4611875607814735,1.1421463328453836,1.9745557633628437,0.8481248539218662,0.1859846429209236,0.45318853628189687,0.20177734099809552,5.905062333352948,-7.211105246993622,4.360476757974257,-2.5031036790164483,3.004084931604991,0.20869565415534655,18.547695419005805,-1.563945298278746,1.8450093949331503,0.0,0.0,0.0,0.0,0.0,0.0,0.0,0.0,0.0,0.0,0.0,0.0,0.0,0.0,0.0,1762.3721856315174,1786.0167157133505,1784.7146694296373,1714.924876215991,1764.4705215221816,1783.8212541348596,1773.6722013652704,1727.1168340663096,24.62511971268213,-3.120296189796419,3.6404690981864665,0.06806355467368769
64,0.6500000000000004,-4.401206170993308,1.069974219186779,2.0182487184952302,0.8431405568819781,0.17209029440159826,0.4634408523487466,0.21147460435661472,6.091588098426155,-7.221797684072521,4.377804756254457,-2.749499317456793,3.2138823978189883,0.20170973727907343,18.761097683515082,-0.6549638053519047,1.6533789056261128,0.0,0.0,0.0,0.0,0.0,0.0,0.0,0.0,0.0,0.0,0.0,0.0,0.0,0.0,0.0,1760.0147473085904,1784.3880178104373,1782.1938300541124,1709.7135479352369,1761.450048835047,1782.4328591924384,1771.1485691863234,1721.373257841649,24.688874463084016,-3.2227442369113244,3.7356320670940564,0.04823787207943969
65,0.6600000000000004,-4.33934676244935,0.9977418292559449,2.062106394454594,0.8375126452872284,0.1569873718887297,0.4740987769978688,0.22171577233156858,6.280758451331804,-7.223048151421805,4.3934519973627975,-2.938876822355034,3.398696737505299,0.19473158399965956,19.040393226776864,0.320200763416878,1.4873136846764723,0.0,0.0,0.0,0.0,0.0,0.0,0.0,0.0,0.0,0.0,0.0,0.0,0.0,0.0,0.0,1762.340662603499,1785.2237577262815,1776.8914536005827,1713.5519593628992,1763.7877308466334,1783.6040565506291,1768.1368585378575,1722.9861986637168,24.55954095341611,-3.3235486165069994,3.824871089326289,0.031118964467189182
66,0.6700000000000004,-4.275580715686376,0.9255469693700543,2.1061124842607186,0.8312096763158503,0.14091070403673553,0.48502980091474013,0.2323375555337076,6.472944511400863,-7.214183168259239,4.4074772454555875,-3.083960763620981,3.5440254567826512,0.18727006545620034,19.343730299231865,1.3605082340362173,1.3190313895501404,0.0,0.0,0.0,0.0,0.0,0.0,0.0,0.0,0.0,0.0,0.0,0.0,0.0,0.0,0.0,1767.9488169156755,1786.6956573916416,1771.101995306168,1721.2594783240547,1769.0862055598643,1785.5485988672342,1764.8389621929493,1728.2199469112743,24.903781411881646,-3.4336988521373737,3.9628887070232564,0.015853434646487842
67,0.6800000000000004,-4.209882709977762,0.8534939242136992,2.150247299945561,0.8242294527051818,0.124028366549828,0.4960933621721331,0.24321626095523943,6.6668684768847,-7.194599104078025,4.419020120583981,-3.2074199045319522,3.66524212296948,0.1793595907331817,19.460330644021084,2.454457476821048,1.033940993554694,0.0,0.0,0.0,0.0,0.0,0.0,0.0,0.0,0.0,0.0,0.0,0.0,0.0,0.0,0.0,1766.077466197173,1782.1424530642385,1761.4950521873234,1720.2174231818951,1766.7934752444542,1780.7081844141796,1755.9074800934964,1725.8331266943753,25.752449633660454,-3.477023631260073,4.041468222980804,8.554508844517417e-05
68,0.6900000000000004,-4.142229263773376,0.7816928335260371,2.1944886886350723,0.8165344705326314,0.1064061800907381,0.5072325625669942,0.2542917826871591,6.864537065966329,-7.163666216149931,4.429037151242847,-3.324821282307052,3.7944930209918915,0.17127349968291883,19.923150255101163,3.6225751111951254,0.9209757767099092,0.0,0.0,0.0,0.0,0.0,0.0,0.0,0.0,0.0,0.0,0.0,0.0,0.0,0.0,0.0,1777.003594194074,1795.5263064893218,1772.265657854745,1730.9769465856864,1779.2628968736042,1794.1155479524502,1766.881475621612,1738.061575269479,26.138127915884773,-3.4514019300042196,4.096283415056484,-0.019647278277609422
69,0.7000000000000004,-4.072563874875555,0.7102626337250397,2.2388302908502578,0.8080825690183874,0.08815667401309037,0.5184141302585507,0.2654764622784168,7.069830890324104,-7.1201971545814065,4.439305096851822,-3.402574642647124,3.900546931766962,0.16300851164995958,20.785648999924078,4.929357822018865,0.9830844606790734,0.0,0.0,0.0,0.0,0.0,0.0,0.0,0.0,0.0,0.0,0.0,0.0,0.0,0.0,0.0,1807.5215930183197,1824.106466434967,1796.7340855754574,1763.5822092662672,1810.194122254405,1824.036672235187,1793.9868362859145,1769.734363132955,26.419047467045413,-3.429676160618518,4.1407733593793665,-0.040602334637528076
70,0.7100000000000004,-4.0008137094371925,0.6393332040391071,2.283271062254317,0.7988783195393035,0.06950400207869092,0.5295717541890907,0.2766159457265487,7.280868528776087,-7.063458248440205,4.448493878078419,-3.4263244223267693,3.984452779903198,0.15394093702184866,21.23619306818636,6.27112473123681,0.7975835197076009,0.0,0.0,0.0,0.0,0.0,0.0,0.0,0.0,0.0,0.0,0.0,0.0,0.0,0.0,0.0,1822.9590880683681,1839.0391679495083,1804.9263646571098,1781.7940122777115,1825.2310120286818,1837.875767737944,1803.216690700262,1785.3355003095837,26.697881878572247,-3.4263248822753036,4.165030466820145,-0.0579343709858625
71,0.7200000000000004,-3.9269349298889233,0.5690388142094962,2.327791658043036,0.7889425098135165,0.05062495465809468,0.5406494989756617,0.2875846821935779,7.495301957459204,-6.993146513774339,4.455096284809123,-3.428081812641031,4.051303416258677,0.1436771654259351,21.520554947608517,7.639338208639046,0.49924092649700214,0.0,0.0,0.0,0.0,0.0,0.0,0.0,0.0,0.0,0.0,0.0,0.0,0.0,0.0,0.0,1834.4106552238093,1849.5861338221005,1810.2776447944595,1794.1761402343898,1836.5249369130674,1848.0970367130724,1809.34257690655,1796.544693567225,27.027257557940203,-3.4375355836047183,4.206701369842575,-0.07328995498554974
72,0.7300000000000004,-3.850899040456154,0.4995166945498873,2.372362069828113,0.7783123024530952,0.03159564532000469,0.551573620830029,0.29832568754873473,7.712173600235111,-6.908955919108729,4.458357145224523,-3.4282065639459884,4.099502588669161,0.13253115610661043,21.733398781663027,9.038324324722069,0.1393513716747563,0.0,0.0,0.0,0.0,0.0,0.0,0.0,0.0,0.0,0.0,0.0,0.0,0.0,0.0,0.0,1846.242033575733,1858.1790819598089,1816.7759175090011,1805.7043564787539,1847.7281953704746,1857.1927445527895,1816.4360188634205,1807.5225737732464,27.335339415475968,-3.3862720567150695,4.1874106708992835,-0.0872233306574699
73,0.7400000000000004,-3.7726839303831428,0.4309075003772215,2.416946465845364,0.7670149952937658,0.012430388229720389,0.562281359961147,0.3088254437108539,7.931089637621368,-6.810496875136243,4.457824815375682,-3.434339747821622,4.145356306281013,0.1209142661046517,21.91733913251248,10.479150686882654,-0.2599948420201059,0.0,0.0,0.0,0.0,0.0,0.0,0.0,0.0,0.0,0.0,0.0,0.0,0.0,0.0,0.0,1858.3210626717362,1869.0677263873047,1827.3932023603202,1816.8656958748375,1859.8269428476592,1868.1737830961467,1826.8552786813796,1819.0926907898438,27.575073534647554,-3.2584519642636773,4.177854777391843,-0.10539763197088328
74,0.7500000000000004,-3.6922723469256393,0.3633554041394143,2.4615041887966513,0.7550930379455489,-0.006781736867052457,0.5727219305744866,0.3190268050340922,8.151320982920216,-6.697516792996359,4.452917638090047,-3.4091404638387153,4.161997200565202,0.1089841805309846,22.011221888806887,11.93420523409916,-0.7238835347367356,0.0,0.0,0.0,0.0,0.0,0.0,0.0,0.0,0.0,0.0,0.0,0.0,0.0,0.0,0.0,1870.984145136275,1877.661946439924,1833.8749264947662,1831.1955557641709,1871.7414275184358,1877.4128745224486,1834.9808994451519,1831.7348295798377,27.865629793852545,-3.1557305156799393,4.211089976728338,-0.12435542298627474
75,0.7600000000000005,-3.6096568815786676,0.2970053539906748,2.505987845199557,0.7426179377801579,-0.025835846632406796,0.5828767314803276,0.3287945002805591,8.371661712042247,-6.570133660307131,4.4428865138079825,-3.3298767529437425,4.1679272013271556,0.096192899665132,21.974719790108566,13.362018309007517,-1.2664959535966247,0.0,0.0,0.0,0.0,0.0,0.0,0.0,0.0,0.0,0.0,0.0,0.0,0.0,0.0,0.0,1878.9517468981242,1887.097385313967,1838.0861632435299,1842.448038343627,1880.495156130309,1885.8372809040823,1840.2330832317668,1841.7366504840559,28.166888578957973,-3.1250555522286607,4.20456524914165,-0.1407258458991628
76,0.7700000000000005,-3.5248401385801493,0.23200086075362364,2.5503433151357755,0.7296135423026667,-0.044617787493624286,0.5927964706298804,0.33803206406565367,8.591515019776852,-6.428408982557625,4.427205358677753,-3.2404119365500628,4.18643284801141,0.08229726949610104,21.90516026720779,14.791218870166212,-1.85300556371093,0.0,0.0,0.0,0.0,0.0,0.0,0.0,0.0,0.0,0.0,0.0,0.0,0.0,0.0,0.0,1886.9363362446306,1899.4090343329178,1847.454298070333,1851.597359572013,1889.5457438029468,1897.1936797948238,1849.3434803378457,1851.3390488499167,28.54454434121128,-3.126318099296507,4.194735828988877,-0.15627951343819108
77,0.7800000000000005,-3.4378294261285602,0.16848502486402006,2.5945115376182453,0.7160986528173499,-0.06317077499989104,0.6024664420142979,0.3467655675895783,8.81034911353428,-6.272426310820411,4.405347739418238,-3.1831938457961035,4.1933511363431375,0.06768026852967837,21.77339817609969,16.208337987529298,-2.4937376582538917,0.0,0.0,0.0,0.0,0.0,0.0,0.0,0.0,0.0,0.0,0.0,0.0,0.0,0.0,0.0,1899.030385444124,1907.688701291017,1857.21336740801,1861.7855577453688,1900.4141712935052,1906.6524144323646,1859.1621308500632,1861.5626656563009,28.81338585132605,-3.0395750490703444,4.150173496596674,-0.17070048371686913
78,0.7900000000000005,-3.3486367741003065,0.10660075978312386,2.63842858402351,0.7021154227699277,-0.08158178875424336,0.6117976414772263,0.3550802595684068,9.027858234544684,-6.102067503275455,4.3769115622385835,-3.155922967484229,4.193354524949321,0.052721367390135734,21.621744876417992,17.647366327691927,-3.168420456273857,0.0,0.0,0.0,0.0,0.0,0.0,0.0,0.0,0.0,0.0,0.0,0.0,0.0,0.0,0.0,1913.6660960679508,1917.840393490665,1870.3013198916967,1873.7469916893233,1914.3141398190157,1917.749607720999,1871.8784862341377,1874.160574258936,29.006632344153548,-2.8756371623897796,4.121895959482768,-0.18845775115421934
79,0.8000000000000005,-3.2572805235324798,0.046490267607503064,2.6820258016946283,0.6877265706765562,-0.09980285467102011,0.6207506219704699,0.36296035528450443,9.242822643393254,-5.917797110288066,4.341270388324462,-3.094948548304954,4.173623652061105,0.037533668358739045,21.31194922692181,19.00843612178349,-3.9145163374216807,0.0,0.0,0.0,0.0,0.0,0.0,0.0,0.0,0.0,0.0,0.0,0.0,0.0,0.0,0.0,1923.9880643304407,1925.3363031922229,1876.9239917928194,1885.58877271252,1924.215129634811,1925.3058939306222,1879.5242497989393,1884.6714471565651,29.288328635232574,-2.7534517514138415,4.174063280810491,-0.20540098313664626
80,0.8100000000000005,-3.163793306685714,-0.011711503902443882,2.7252279561012993,0.6730165066495524,-0.11765592352509395,0.6293674704539218,0.3702734834836575,9.453855243153926,-5.72047286386836,4.297808609241438,-2.9797139130964285,4.150780717692551,0.02166482491067044,20.874708453678892,20.276553300679012,-4.718111821181203,0.0,0.0,0.0,0.0,0.0,0.0,0.0,0.0,0.0,0.0,0.0,0.0,0.0,0.0,0.0,1929.0882972293934,1933.4873712657386,1880.714541009742,1894.5064581659208,1930.3480580706646,1932.1741971169686,1884.1719665233554,1892.5032621803296,29.58048722863215,-2.736658176523315,4.163603798343814,-0.22127572334173962
81,0.8200000000000005,-3.068217060654014,-0.06787623563077146,2.767954856312249,0.6579848777356783,-0.13508445051385526,0.6377543779258646,0.37693161891373317,9.660619817041088,-5.510411982694596,4.246166197671898,-2.86320056852281,4.161770482112775,0.005112678953555397,20.43874396339085,21.53713298583515,-5.552192564686642,0.0,0.0,0.0,0.0,0.0,0.0,0.0,0.0,0.0,0.0,0.0,0.0,0.0,0.0,0.0,1934.2389108973823,1946.4769668002302,1892.4164828063092,1901.1534309137428,1937.2313296856798,1943.6753977314727,1894.7673541499914,1900.534793514884,29.967830295953174,-2.7699378328566855,4.1035990964307825,-0.23684559397018717
82,0.8300000000000005,-2.97059585744576,-0.1218779535071429,2.8101226604050584,0.6426016438884472,-0.15220574103226558,0.6459083393050695,0.3830129983236225,9.862756578158073,-5.287942593771107,4.1859168332249945,-2.800587466943671,4.162146386970725,-0.01177435934923953,19.950629156177513,22.756641276524547,-6.430927549601506,0.0,0.0,0.0,0.0,0.0,0.0,0.0,0.0,0.0,0.0,0.0,0.0,0.0,0.0,0.0,1945.9806949555937,1953.4429652140534,1903.0106916100408,1910.0183884662874,1947.21560727589,1952.3839132868109,1905.2243725456872,1909.5937360921375,30.18717361356615,-2.7239391745799675,4.0486068270800235,-0.25130259312348463
83,0.8400000000000005,-2.8709772446415305,-0.17359296842331717,2.8516434825644543,0.6269141791885446,-0.1691436553456551,0.6536727649430596,0.38869133275693124,10.060075353590658,-5.053052117484389,4.116726209381728,-2.7870627574127105,4.1361130180747825,-0.028700037539789905,19.454071929175143,23.995481895964232,-7.336117631129291,0.0,0.0,0.0,0.0,0.0,0.0,0.0,0.0,0.0,0.0,0.0,0.0,0.0,0.0,0.0,1963.0851116029544,1960.6847745113644,1915.2692910584212,1923.1883219822737,1962.4661657118838,1961.7716187377632,1917.5890250508778,1922.9550139888506,30.3348965868444,-2.6175874679893694,3.972730736479372,-0.26913454068590353
84,0.8500000000000005,-2.769414849274182,-0.2229010480997871,2.8924261037539347,0.6109988768533126,-0.18588922232975544,0.6609641539823881,0.39402024904308575,10.251241090091433,-4.806802674602609,4.038218503586323,-2.753429909183299,4.097987238874197,-0.04556250857300954,18.780276105562876,25.076315358037782,-8.280013607236292,0.0,0.0,0.0,0.0,0.0,0.0,0.0,0.0,0.0,0.0,0.0,0.0,0.0,0.0,0.0,1971.6252978565522,1966.2206414395625,1921.6755964105605,1932.110857474426,1970.7883203687322,1967.0068975225286,1924.1097304428104,1931.2535617296605,30.616521069822817,-2.5029658377833117,4.0006561832431995,-0.28452458259574726
85,0.8600000000000005,-2.665977186902043,-0.2696953822324827,2.932375966328541,0.5949513889996423,-0.2023206206676465,0.667802852321319,0.398921748732211,10.434966386794247,-4.55049604110353,3.9501485517270045,-2.681158682870435,4.0432070425523925,-0.06279989582726274,18.00025255121973,26.035298131930062,-9.241520610752563,0.0,0.0,0.0,0.0,0.0,0.0,0.0,0.0,0.0,0.0,0.0,0.0,0.0,0.0,0.0,1976.85514072296,1970.77832987677,1923.539552682858,1939.9666370693644,1976.2026042432635,1971.143015826484,1927.1496163640204,1937.700511091642,30.88454397622002,-2.4763684965655046,3.956868082710117,-0.29952404575517994
86,0.8700000000000006,-2.5607399815999856,-0.3138773102971444,2.9713968645806776,0.5787955086650431,-0.21837068079536334,0.6742869349721126,0.4032953436925076,10.611187879285032,-4.2843018123451495,3.8524027374984597,-2.58779140753173,4.026171393060102,-0.08033374156687947,17.25146039968628,27.017086754232977,-10.215983084186586,0.0,0.0,0.0,0.0,0.0,0.0,0.0,0.0,0.0,0.0,0.0,0.0,0.0,0.0,0.0,1980.9109421289909,1983.8376196601982,1935.0219865376484,1946.783369841781,1982.5881572661667,1982.2495541626772,1937.6180489259493,1945.9453407005344,31.251583100236967,-2.5707650851535178,3.776305050660394,-0.3152317334692646
87,0.8800000000000006,-2.453779053657641,-0.3553495781974789,3.0093910336373484,0.5624990143187267,-0.23409819394638123,0.6804466973758281,0.4071672709241644,10.779625657406962,-4.008686058320477,3.74477001547415,-2.5313972371075355,3.99589750112543,-0.09793519310668385,16.451281757536407,27.926547527092893,-11.211688568762757,0.0,0.0,0.0,0.0,0.0,0.0,0.0,0.0,0.0,0.0,0.0,0.0,0.0,0.0,0.0,1990.9286963944367,1990.3237854193883,1943.8756148615332,1955.7929119853727,1991.1270295427023,1990.170424612099,1946.7995700048646,1954.6012289783719,31.41166927867708,-2.6356837154067962,3.623266214475543,-0.32977767875871805
88,0.8900000000000006,-2.345173349320592,-0.3940192011985447,3.046258702336398,0.5461524005077705,-0.24958799382433458,0.6860561298447249,0.41079237512497946,10.940125784732952,-3.72375781860931,3.627095890619879,-2.554564165135968,3.8989047316167342,-0.11545360603607387,15.646384217895104,28.85256140682646,-12.214168439248052,0.0,0.0,0.0,0.0,0.0,0.0,0.0,0.0,0.0,0.0,0.0,0.0,0.0,0.0,0.0,2011.3427580643265,1992.2828979667943,1952.12341787136,1971.1816432643975,2007.8158031057726,1996.2331444328906,1956.2934947486506,1969.0444823083621,31.49712318774138,-2.8261563094945905,3.2765856133054556,-0.3487769382866388
89,0.9000000000000006,-2.235007147851216,-0.4297987718435241,3.0819001034774764,0.5298816449467931,-0.26486380357948336,0.6909050436477497,0.4143945324977038,11.091476539848966,-3.4310033789939385,3.499577199679572,-2.596378594103776,3.778928213043313,-0.13279990519551085,14.678768453622482,29.5656690607915,-13.181641582934667,0.0,0.0,0.0,0.0,0.0,0.0,0.0,0.0,0.0,0.0,0.0,0.0,0.0,0.0,0.0,2020.6463875288532,1993.051716975051,1956.791845743965,1977.935671236636,2016.1430336737496,1997.3775678295767,1960.2298660324386,1975.8969249632182,31.611563235970355,-2.791340719666873,3.067551427005408,-0.3621398229411524
90,0.9100000000000006,-2.1233781913234284,-0.4626183198261694,3.116218997470533,0.5138435486982826,-0.2799325846546315,0.694740051690379,0.4182568781107883,11.232528506351008,-3.1319344839416754,3.3627054450760383,-2.7170653052551725,3.5574444018743523,-0.15022777816374702,13.614205468751805,30.15706445356292,-14.084437668500982,0.0,0.0,0.0,0.0,0.0,0.0,0.0,0.0,0.0,0.0,0.0,0.0,0.0,0.0,0.0,2035.5716103303173,1983.6349701378388,1952.6654557017948,1987.3937982935859,2026.4374548117873,1992.644909520996,1958.4867890458868,1982.738654143225,31.55554993192172,-2.5308134622640717,2.8307648475712823,-0.372806369993793
91,0.9200000000000006,-2.010392506205097,-0.4924178294009595,3.1491254703403766,0.4982499186793759,-0.2946468081325449,0.6974904257449027,0.4224184927148587,11.362772878741511,-2.827058690434156,3.21721858310103,-2.7503456491459475,3.344823290579175,-0.16780558187187486,12.520804851035905,30.71704965156341,-14.912214170538896,0.0,0.0,0.0,0.0,0.0,0.0,0.0,0.0,0.0,0.0,0.0,0.0,0.0,0.0,0.0,2037.1513745197458,1988.550220973647,1955.002500957218,1993.0009367814196,2030.448127108455,1994.9649804733604,1960.5365768320212,1988.7845115338137,31.10169186264436,-2.384763369970702,2.4666720038151784,-0.3845338560058053
92,0.9300000000000006,-1.896161470715412,-0.5191460034583099,3.1805377496111435,0.4833014409208497,-0.30869962649470806,0.6994528106245136,0.42648566624838247,11.48150436011634,-2.5179951838208527,3.064019328670947,-2.628759999455337,3.120385806167937,-0.18550642872487025,11.356942495158506,31.06327419621202,-15.645449510608422,0.0,0.0,0.0,0.0,0.0,0.0,0.0,0.0,0.0,0.0,0.0,0.0,0.0,0.0,0.0,2030.3844679841106,1991.1441357390383,1947.4880778906393,1998.5336799700735,2025.7510907513815,1994.8480108082813,1956.154942004411,1990.9213348499084,30.48739974448381,-2.2309885116604202,2.187937338059463,-0.3945914606019613
93,0.9400000000000006,-1.7808050507959452,-0.5427778651394071,3.2103847824935077,0.46927170647771377,-0.32184719245438015,0.7007426525473328,0.43030011051550476,11.58770843575582,-2.2084347213402413,2.904410088561372,-2.5013345851588555,2.8335191656222447,-0.20351122202086466,10.086609818573677,30.983498550049227,-16.228091901345998,0.0,0.0,0.0,0.0,0.0,0.0,0.0,0.0,0.0,0.0,0.0,0.0,0.0,0.0,0.0,2019.898626449162,1973.0765123866947,1925.6696967850212,1993.5056942191022,2012.930192006304,1977.931757435898,1936.796207614085,1982.3748652572988,30.81891230140524,-2.1493909627502066,1.7994332856834128,-0.4093415943409469
94,0.9500000000000006,-1.6644503411923044,-0.5633242297062514,3.23860963294743,0.45633215170054314,-0.33401076371586824,0.7013745586153509,0.433902645271283,11.681205380639978,-1.901250425601085,2.7398012054695697,-2.360684341866033,2.552332115815641,-0.22167094404019513,8.834391261318686,30.670298791022343,-16.674534681081266,0.0,0.0,0.0,0.0,0.0,0.0,0.0,0.0,0.0,0.0,0.0,0.0,0.0,0.0,0.0,1999.411917689507,1953.6887376091786,1905.8458534444828,1975.8624389103002,1992.8920638905129,1957.4755949032972,1915.771714868477,1965.3430719768824,31.336820795929373,-1.8889137346665281,1.5826811377224081,-0.41932857417195546
95,0.9600000000000006,-1.5472127179307533,-0.5807924011913712,3.265162723508658,0.4445688424860747,-0.3451952128975902,0.701334148951966,0.43741195776636105,11.764847693957313,-1.5917060896009199,2.569944773987713,-2.252421410301056,2.2224385385736154,-0.24026814702269955,7.957993635402616,31.102182209421734,-17.207649115485335,0.0,0.0,0.0,0.0,0.0,0.0,0.0,0.0,0.0,0.0,0.0,0.0,0.0,0.0,0.0,2013.1674136553322,1957.1839712384929,1911.8881259674233,1988.9480634520053,2005.7526984045094,1964.8744242707999,1924.7118598874115,1978.5231475934863,31.571658683078677,-1.5146293911812871,1.3791191375729521,-0.42886057048023885
96,0.9700000000000006,-1.4291795793871036,-0.5951382022406582,3.28999067480924,0.4340744032490697,-0.3553473339344135,0.7007459677492051,0.44075250809598165,11.84049344377104,-1.2765630711477947,2.3948285765629076,-2.060776916018849,1.9449866155972642,-0.2590266834500133,7.202025168849602,31.69429854503236,-17.7140213317184,0.0,0.0,0.0,0.0,0.0,0.0,0.0,0.0,0.0,0.0,0.0,0.0,0.0,0.0,0.0,2021.6086534433005,1979.2697216689735,1931.6908721682285,2003.4470544779701,2018.1451507945603,1983.5150749373715,1943.3476112568062,1994.875127810444,31.757257146386948,-1.257186767488509,1.0617738953332458,-0.43919009658286606
97,0.9800000000000006,-1.3104288667965032,-0.6063107979895984,3.313044967348923,0.4248817319527864,-0.364392388255437,0.6999513869000837,0.44357835521015776,11.908383743653145,-0.957502207382658,2.2153934658011356,-1.7742925782647927,1.698583030054237,-0.2776985901767105,6.445385732634534,31.99685034676869,-18.10509063083021,0.0,0.0,0.0,0.0,0.0,0.0,0.0,0.0,0.0,0.0,0.0,0.0,0.0,0.0,0.0,2021.2709592177687,1993.517287380835,1940.2030862158385,2012.455540587208,2019.8902850695101,1994.8089956149622,1952.5246674396715,2002.480188655431,31.775336770885826,-1.0398504650932294,0.8218968974391031,-0.44739209422598275
98,0.9900000000000007,-1.1910357150307405,-0.6142803175311107,3.3342867321657317,0.4170786745607794,-0.37228583004173343,0.6990689399456225,0.44581527248409136,11.969125569421637,-0.6361111249019825,2.03243616403268,-1.5081814512123637,1.419485409009701,-0.296242745931337,5.772255548873062,32.19303707280552,-18.42727258790111,0.0,0.0,0.0,0.0,0.0,0.0,0.0,0.0,0.0,0.0,0.0,0.0,0.0,0.0,0.0,2028.430909388558,1996.5504942117202,1943.509232236902,2022.6211524255566,2025.2327719016923,1999.4896513825186,1957.35616683557,2010.9925424314615,31.632738076939788,-0.9771946674622718,0.49744238181365497,-0.46341510785985757
99,1.0000000000000007,-1.0710679826853287,-0.6190312338680499,3.3536851610609815,0.41068661782684307,-0.3790721403935552,0.698074930179352,0.44758485918369784,12.023413988284483,-0.31406963230095936,1.8468892454278112,-1.2679679534255914,1.1591827041904603,-0.3142638736842002,5.162692544173453,32.19949248669346,-18.647411242485255,0.0,0.0,0.0,0.0,0.0,0.0,0.0,0.0,0.0,0.0,0.0,0.0,0.0,0.0,0.0,2027.6828927395034,1997.0429606458354,1947.7415537128384,2022.1730507936652,2024.586647987734,1999.367254841386,1959.4794732641697,2011.9580246055368,31.77560489198221,-0.8235344122821823,0.39635933040690374,-0.47413769679054013
100,1.0100000000000007,-0.9505870423810433,-0.6205664042954674,3.3712195703801484,0.40561834741685693,-0.38488982219827245,0.6968508494966377,0.4491463843367935,12.071866375993162,0.006779191179945507,1.6598104033392533,-1.1222659654713405,0.8690916907090052,-0.3322500613356592,4.609030279555171,32.03002395611911,-18.75641057568833,0.0,0.0,0.0,0.0,0.0,0.0,0.0,0.0,0.0,0.0,0.0,0.0,0.0,0.0,0.0,2028.8746285376078,1986.8637792120135,1944.3531392480804,2017.5593209701456,2022.7771607520135,1991.8388246246827,1955.5021358318177,2007.283240961282,31.71056879282656,-0.5985823415507997,0.42627949271828214,-0.4832862801303259
101,1.0200000000000007,-0.8296460275066884,-0.6188947414047858,3.3868771241807765,0.40172730116998995,-0.3898827929278674,0.6953919279556657,0.4505958830343925,12.11564176075429,0.32762917074611636,1.4715216033807812,-0.9680507869303085,0.665001444193963,-0.34989139052258317,4.19089891905422,32.08944582773221,-18.86997130686496,0.0,0.0,0.0,0.0,0.0,0.0,0.0,0.0,0.0,0.0,0.0,0.0,0.0,0.0,0.0,2025.5636061884122,1997.1014059540482,1958.0403118745692,2013.7654489341394,2023.2105683635002,1999.0496753312143,1965.6869508018588,2007.6315623013866,31.770027375470487,-0.48325992167607223,0.3792917465764378,-0.49360223628087085
102,1.0300000000000007,-0.7082879097553145,-0.6140168825294094,3.4006483242188446,0.39873053862293967,-0.3942272812251188,0.6939604936793418,0.4516831206937403,12.155352057937309,0.6477336348383401,1.2826628111503537,-0.775720580890149,0.5630102851611397,-0.3667227064735029,3.8069784189040945,31.959050149020673,-18.902207419750905,0.0,0.0,0.0,0.0,0.0,0.0,0.0,0.0,0.0,0.0,0.0,0.0,0.0,0.0,0.0,2011.849634829475,2005.8741916696629,1966.3406552307226,2003.7184353051966,2013.0455067596451,2003.7101935148148,1971.294614275769,1999.5414359025017,32.12256857334945,-0.4465953254644843,0.3433049999503399,-0.5019036123875403
103,1.0400000000000007,-0.5865499454188647,-0.6059419564164833,3.4125286875669385,0.3963965751096315,-0.39808519420431476,0.6926800686878299,0.45231875468444854,12.19174664937527,0.9671607620078999,1.0933289228893968,-0.6267609818001306,0.48288462810807237,-0.3828368735047139,3.5082638373680197,31.910889430105225,-18.95285587446427,0.0,0.0,0.0,0.0,0.0,0.0,0.0,0.0,0.0,0.0,0.0,0.0,0.0,0.0,0.0,2011.0519599752463,2008.9011819437126,1972.2694014483363,2002.4718569631355,2011.61467310024,2007.7413250826569,1977.2648133544783,1998.5218697281716,32.18890653070706,-0.5165338293811726,0.1533471410123797,-0.5188146175291058
104,1.0500000000000007,-0.46446046772838184,-0.5946677141658075,3.4225110850863154,0.3945636201009788,-0.4016003875848047,0.6914827240962578,0.4526459109071505,12.225803307546979,1.2879653092335426,0.9029705169227954,-0.5366531070661611,0.42258825164305225,-0.3980952378604504,3.306677652055612,32.115721340511435,-19.072401628790647,0.0,0.0,0.0,0.0,0.0,0.0,0.0,0.0,0.0,0.0,0.0,0.0,0.0,0.0,0.0,2021.286342045753,2018.3896539631635,1987.798488333179,2009.7483007608112,2021.6021837501137,2018.404280182473,1991.662530086517,2007.7531349441717,32.39554367102859,-0.49526247643225746,0.11463330937398299,-0.5298767482027407
105,1.0600000000000007,-0.34204132151973227,-0.5801822465289186,3.4305862278737993,0.3931540988520748,-0.40487284104671406,0.6901709468457927,0.45295905032194356,12.25765037336763,1.609048283599733,0.7120202469960495,-0.5300481149421367,0.30354974823362957,-0.41325810971434324,3.0825541248109545,32.07783780834572,-19.100085689367273,0.0,0.0,0.0,0.0,0.0,0.0,0.0,0.0,0.0,0.0,0.0,0.0,0.0,0.0,0.0,2032.3538730059743,2012.4483903609923,1988.1503934036798,2014.1077703112321,2028.4482491117305,2016.0073673231573,1992.5906276113406,2010.64370226224,32.25971969912776,-0.3988457054772772,0.3122496314037305,-0.5371713475042735
106,1.0700000000000007,-0.21931400085106736,-0.562484543403123,3.4367501782868866,0.3921533755618779,-0.40793345176086343,0.6886517471464069,0.4533925452872966,12.287496423864706,1.9305818574360143,0.5207324187222504,-0.5116242276545702,0.22267010718238375,-0.4281839711817038,2.8955384134068396,32.15436583666076,-19.130584626675383,0.0,0.0,0.0,0.0,0.0,0.0,0.0,0.0,0.0,0.0,0.0,0.0,0.0,0.0,0.0,2035.9838616891714,2020.603655918623,1998.6060285898782,2016.9998392751143,2034.24974295425,2022.2913587114922,2001.1313708793593,2015.8316205768997,32.055933450142,-0.3376487212165019,0.49288129545682013,-0.5449284911007849
107,1.0800000000000007,-0.09629885667339537,-0.5415763971611379,3.44100260143602,0.3913331306478965,-0.41091375691419685,0.6871478488578846,0.45369163431339404,12.315163247474274,2.2506921474490236,0.329847534006588,-0.4513090503934205,0.26535572965366677,-0.44225444851583845,2.6704213426267387,31.928367368372346,-19.068413954344056,0.0,0.0,0.0,0.0,0.0,0.0,0.0,0.0,0.0,0.0,0.0,0.0,0.0,0.0,0.0,2018.6940407630425,2029.1246107438128,2006.079733999044,2003.4073185643788,2021.7152093843238,2025.0972439395912,2004.4965789028809,2005.307185050682,31.83483473287835,-0.2461576823849213,0.46432677106637904,-0.5503107962000486
108,1.0900000000000007,0.026981590019177833,-0.5174809001306993,3.443349495181357,0.39040422709680767,-0.4139899925541764,0.6858861632945257,0.4536044494171685,12.340558037777996,2.5679245106106507,0.1396103708646887,-0.3924239937386202,0.3662393543964785,-0.45546418186868726,2.444652991137275,31.61526493503164,-19.011751440647373,0.0,0.0,0.0,0.0,0.0,0.0,0.0,0.0,0.0,0.0,0.0,0.0,0.0,0.0,0.0,2005.1448425798144,2029.083498256683,2006.212789337683,1991.8214967570098,2009.121812262943,2023.9170490891652,2003.7879684389384,1994.2735843834555,31.630025270745875,-0.20755781970688608,0.24665406840092297,-0.5664013773362858
109,1.1000000000000008,0.15050484562922645,-0.49022951519756974,3.44379635370277,0.38938807814434306,-0.4171385040768853,0.6848904193565435,0.45309767875058854,12.363747138411124,2.881822516244035,-0.050199832590901376,-0.31606814127654115,0.4077948118324607,-0.4677502975705597,2.231194001083736,31.27157403614822,-18.979347401059055,0.0,0.0,0.0,0.0,0.0,0.0,0.0,0.0,0.0,0.0,0.0,0.0,0.0,0.0,0.0,2002.1775879462014,2017.0025901085783,1994.2055049134215,1991.3713857607659,2003.237481704236,2014.6516618385835,1994.9856631572102,1990.5112823974519,31.882117637815437,-0.262694158302798,0.16600058749708274,-0.5775640817218152
110,1.1100000000000008,0.27424982853694524,-0.45985616352545156,3.4423464057639763,0.3885819661627807,-0.42016370680657583,0.6839770365017308,0.4523736603671081,12.384947856191912,3.1923300400228904,-0.23975807618986947,-0.2608497612651567,0.3350761363030164,-0.4801372562343033,2.044319340802403,30.934713557357885,-18.953171184666328,0.0,0.0,0.0,0.0,0.0,0.0,0.0,0.0,0.0,0.0,0.0,0.0,0.0,0.0,0.0,2007.5543385145334,1999.3927427286874,1976.5888283425522,1995.2806979231298,2004.5870952504467,2001.2010154092309,1980.9631591636987,1990.846395376499,31.385931639085925,-0.25214348426545363,0.4268010058195444,-0.5837938770230255
111,1.1200000000000008,0.398199836787257,-0.42638268435243043,3.4389989356148627,0.388108104589373,-0.42301033574075886,0.6829352466317944,0.45170101163989557,12.404874875039035,3.5024484811697136,-0.4298517063266791,-0.26430988747541345,0.2621516990536287,-0.4925559394409579,1.9405394437264079,31.00774091816305,-19.0310165996006,0.0,0.0,0.0,0.0,0.0,0.0,0.0,0.0,0.0,0.0,0.0,0.0,0.0,0.0,0.0,2017.4533549211928,2003.687561554149,1985.149987891972,2001.5072015119963,2015.4715221752747,2005.8593593345054,1987.9026276794168,2000.0788324860291,30.517473768273195,-0.17956209772217524,0.7831587599830666,-0.5900231256378615
112,1.1300000000000008,0.5223411057803432,-0.38982301854029666,3.433752654235526,0.3876670682913298,-0.42588656499299,0.6818671810497124,0.4509900501432329,12.423057614673175,3.8086206318732523,-0.619229274520249,-0.25743015297432537,0.3385540702235319,-0.50437144837778,1.7395097605472642,30.43718009980889,-18.908682347358095,0.0,0.0,0.0,0.0,0.0,0.0,0.0,0.0,0.0,0.0,0.0,0.0,0.0,0.0,0.0,1988.9244910351583,2002.1569290507637,1985.6005098612732,1972.933508233069,1991.7117771700837,1997.3727329627748,1981.2769645806445,1976.4110926773608,30.505873556764353,-0.12054968228372193,0.8052859654136194,-0.592599516916191
113,1.1400000000000008,0.6466524816260353,-0.35024112989702416,3.42662150438659,0.38682826397491227,-0.42906036772545236,0.6810957663263276,0.4498662602705472,12.438814245523577,4.106350793462946,-0.8067312999330655,-0.21510360858778957,0.5360122992300304,-0.5153851711802303,1.4814743058781943,29.490920614505534,-18.71205660745123,0.0,0.0,0.0,0.0,0.0,0.0,0.0,0.0,0.0,0.0,0.0,0.0,0.0,0.0,0.0,1947.660713785172,1988.302104594513,1970.5614627735574,1934.504240970953,1953.7283831519708,1979.1832180000174,1963.1575774552296,1939.8463343987928,30.779900518408905,-0.11400409615431269,0.6987786876542373,-0.6078791371553558
114,1.1500000000000008,0.7711117822551009,-0.30770778218837164,3.4176173272383483,0.385557023553444,-0.43253779153730765,0.6807059661717528,0.4482144889434276,12.452807386064354,4.399982628468916,-0.9942576658960073,-0.16531542473237665,0.6514776317857901,-0.5254551185128109,1.3361737027288711,29.2775377688681,-18.79813916325357,0.0,0.0,0.0,0.0,0.0,0.0,0.0,0.0,0.0,0.0,0.0,0.0,0.0,0.0,0.0,1951.5670969114026,1979.7700053701235,1962.1437016701102,1941.2653581513566,1954.4469089092,1976.2486611523616,1960.9669214379326,1942.8237866297452,31.091156636192515,-0.2366908025372607,0.49898871715226806,-0.6200598203270656
115,1.1600000000000008,0.8957051026153814,-0.26224032318162865,3.4067302111766824,0.38415169406274385,-0.43612180397328804,0.680494188778623,0.44626551187194946,12.465687671876756,4.693583015203183,-1.18349304656725,-0.13931103897042585,0.6706990623690517,-0.53570496699037,1.238545910934974,29.349763873376844,-19.002682830212336,0.0,0.0,0.0,0.0,0.0,0.0,0.0,0.0,0.0,0.0,0.0,0.0,0.0,0.0,0.0,1970.862930359757,1977.9624790015253,1960.5764327399427,1958.5871042419371,1970.8204229329046,1978.4220384671771,1962.5178254559728,1957.9217951095598,30.7563743946225,-0.3461115871778821,0.7424408082180529,-0.6274969870358678
116,1.1700000000000008,1.0204225839562424,-0.21383187579993598,3.3939399895272273,0.38282825785347024,-0.4396984354251519,0.6801500627795461,0.4444138870180925,12.477644762881082,4.988253219484473,-1.3748872955651368,-0.192460836102576,0.5941258198166379,-0.5462653677377546,1.1459277417795732,29.471629733921034,-19.216640683169082,0.0,0.0,0.0,0.0,0.0,0.0,0.0,0.0,0.0,0.0,0.0,0.0,0.0,0.0,0.0,1993.0769423380136,1975.6397548165612,1963.3105283349757,1975.2370002434002,1989.2471159980098,1980.0857273357606,1966.5571003423195,1973.4745269827897,30.184677865599173,-0.28236468000669135,1.2492214451696935,-0.6353629119365969
117,1.1800000000000008,1.1452524898953225,-0.16248704099851694,3.3792309835538026,0.3814015562324135,-0.4434128227416658,0.6796073112474583,0.44277739783186953,12.48802868243506,5.2800361245169185,-1.5669592035068758,-0.2722273953730495,0.6639975585872426,-0.5566649576214969,0.9581900889585881,29.03067835065798,-19.232160726888825,0.0,0.0,0.0,0.0,0.0,0.0,0.0,0.0,0.0,0.0,0.0,0.0,0.0,0.0,0.0,1972.026147252903,1976.9202841454521,1968.792720107254,1950.778749199229,1973.3629759523494,1974.1210478408377,1963.5357082419264,1955.6581237574412,29.95961600481936,-0.19689504742197722,1.232313083536758,-0.6357506448497273
118,1.1900000000000008,1.2701754235283116,-0.10825373028991064,3.3626025304899203,0.37934490085413036,-0.4475883185133782,0.6792650852356207,0.4408640236015881,12.496171043599155,5.565598733436072,-1.7587307921520752,-0.27278219259939096,0.9250519179658394,-0.5665540081203968,0.7169257158565756,28.342155850093143,-19.203687654562483,0.0,0.0,0.0,0.0,0.0,0.0,0.0,0.0,0.0,0.0,0.0,0.0,0.0,0.0,0.0,1932.4200777111782,1979.889463235359,1968.5104717721008,1915.1013355128644,1940.8151414718122,1969.558878889833,1958.0717814859343,1924.5350566151085,29.89056814883438,-0.1229626567267881,1.1722738369058208,-0.6505638170158612
119,1.2000000000000008,1.3951686158385346,-0.0511906825933893,3.3440535437776866,0.3766578673386141,-0.4521883581924331,0.6793129979927685,0.43839296349877216,12.502123994446753,5.8463846672205255,-1.9513028819008595,-0.23023317622812287,1.0555939681039752,-0.5755064094818859,0.5064563322072502,27.936130827323602,-19.332695115957808,0.0,0.0,0.0,0.0,0.0,0.0,0.0,0.0,0.0,0.0,0.0,0.0,0.0,0.0,0.0,1932.595077057492,1962.8006482568026,1948.5815862957961,1921.4909049018943,1935.0176849597203,1959.1593289463517,1947.0369115306376,1922.7692272936947,30.326836812230223,-0.2850711260466461,0.7605030296677043,-0.6649151844835488
120,1.2100000000000009,1.5202115189011405,0.008664140532463237,3.323570231193626,0.3737859806117074,-0.45690384630761655,0.679594372911816,0.43551625025255447,12.506157291388686,6.124152023734838,-2.1457152177060412,-0.17301662789718822,1.1060217910140686,-0.5846838578502269,0.32462568644042733,27.669304685410623,-19.541213598689655,0.0,0.0,0.0,0.0,0.0,0.0,0.0,0.0,0.0,0.0,0.0,0.0,0.0,0.0,0.0,1938.5751175771238,1952.9501036669637,1935.377335155799,1928.7293723153,1939.5621373108602,1951.3463007079995,1936.364144538067,1927.8744833912733,29.96022939525185,-0.5198778718926573,0.8135969032361253,-0.6783231536219877
121,1.2200000000000009,1.6452873773843366,0.07129608522413416,3.3011275635250845,0.3710799574036481,-0.46153494313328286,0.6797107978547593,0.43275673623862965,12.508797481436918,6.402481689313542,-2.343395269656672,-0.23497521576198988,0.9505908728613989,-0.5944115977687902,0.19971846844235586,27.85300942206259,-19.903123356812102,0.0,0.0,0.0,0.0,0.0,0.0,0.0,0.0,0.0,0.0,0.0,0.0,0.0,0.0,0.0,1975.4800659166424,1943.2237369621591,1931.5382535640947,1958.1808755946574,1968.4387634946088,1951.4750874802,1938.5172853755223,1953.064432531729,29.27645828028019,-0.486045742501786,1.3069586657315453,-0.6915009014521418
122,1.2300000000000009,1.7703809914662942,0.13670138859969586,3.2766981225715055,0.36851303707139477,-0.4661430897799958,0.6793382873005958,0.43059058601677436,12.509562281362651,6.677846502203144,-2.5426250707200397,-0.3849008328602815,0.895142701825511,-0.6047314299693249,-0.019793720603900056,27.37748790000971,-19.971259160457056,0.0,0.0,0.0,0.0,0.0,0.0,0.0,0.0,0.0,0.0,0.0,0.0,0.0,0.0,0.0,1961.667466181692,1936.709564421536,1932.624602877467,1935.166889310023,1957.758932246052,1939.1751158303778,1930.1923865252193,1937.0179895625333,29.059022371501793,-0.3997405345646515,1.1267497945357796,-0.686775349953223
123,1.2400000000000009,1.8954697253857529,0.20482729071162364,3.2502770204718963,0.3655253325865178,-0.47107717173174213,0.6788394122146821,0.4285493926430922,12.507735849634647,6.94616502939883,-2.741564349830929,-0.4310479313258065,1.082122130829961,-0.6152859137882265,-0.2973429585217957,26.59145491865278,-19.918163335411077,0.0,0.0,0.0,0.0,0.0,0.0,0.0,0.0,0.0,0.0,0.0,0.0,0.0,0.0,0.0,1914.2082438171585,1941.3465981719903,1933.0233863091914,1890.2885355298984,1920.0247177537108,1933.0794262375014,1922.6936469708287,1899.1845912379854,29.05330232190475,-0.2625265158687089,1.0571245299399414,-0.6979991941110468
124,1.2500000000000009,2.0205272577540945,0.2756085153741858,3.221864002166872,0.36214791085882786,-0.4762803424903518,0.6784632210610311,0.42625530341023354,12.503371499587306,7.2094686925781835,-2.9412700998730203,-0.40999376847892266,1.0963773670087011,-0.6245585940808204,-0.540833187473666,26.191950055289404,-20.043476241701885,0.0,0.0,0.0,0.0,0.0,0.0,0.0,0.0,0.0,0.0,0.0,0.0,0.0,0.0,0.0,1916.456820552425,1920.926166348699,1908.8011633802037,1901.8750150826086,1914.7834021945355,1921.2563951235577,1910.5582361899017,1899.9244014827668,29.632098353552927,-0.47125784743224025,0.3090300084182921,-0.7160446734139392
125,1.260000000000001,2.1455298225763384,0.3490087520944501,3.1914452467505936,0.35891026991502006,-0.48139107289327265,0.6781431817208281,0.42375450224598593,12.496801824503521,7.470248190755728,-3.1428288503787067,-0.3299010178626691,1.0802126149379585,-0.6334996154844112,-0.7466886971450037,25.98995924216485,-20.250376521464553,0.0,0.0,0.0,0.0,0.0,0.0,0.0,0.0,0.0,0.0,0.0,0.0,0.0,0.0,0.0,1918.0050307285935,1918.5853654262637,1900.269767209619,1908.9893702521583,1918.1595351976164,1917.9772435686034,1903.1177860874368,1906.5308136406566,29.26062617545904,-0.7952763417577289,-0.21782413447509585,-0.7395791000909775
126,1.270000000000001,2.2704580024789247,0.4250209955477447,3.158994912421998,0.3562623448675895,-0.4861505098852672,0.6774362787265323,0.4216810543916923,12.488577705632308,7.732671281071615,-3.3478346860353794,-0.40881024133910215,0.7351610861723842,-0.643100147641088,-0.8965885790157557,26.309687572522833,-20.62910104835458,0.0,0.0,0.0,0.0,0.0,0.0,0.0,0.0,0.0,0.0,0.0,0.0,0.0,0.0,0.0,1971.6253637189632,1901.3907387402162,1889.5702938478953,1953.457219196211,1958.2209880565285,1917.169980615383,1903.6944299922282,1942.0656564835544,28.50450896794539,-0.9098499729595283,-0.19959948852454568,-0.7602586849429275
127,1.280000000000001,2.3952946031762727,0.5036517708892697,3.124487048333869,0.35458669186992375,-0.4903712911178131,0.6756863901714052,0.4210132740583466,12.478375689283023,7.992854029588116,-3.553647170363139,-0.6135613834030462,0.31870861849596377,-0.654334271900588,-1.1180557934338253,25.888341945383253,-20.564341805421105,0.0,0.0,0.0,0.0,0.0,0.0,0.0,0.0,0.0,0.0,0.0,0.0,0.0,0.0,0.0,1977.253329144559,1876.3351796039212,1873.5012869552445,1945.5050421959086,1960.666740483187,1892.6668779169559,1882.551390379497,1936.124534644254,28.339103461670835,-1.1401903237815958,-0.815966660158029,-0.7471437148577846
128,1.290000000000001,2.520017007327203,0.584853557094151,3.087931127830085,0.3536007497507304,-0.4942454915029073,0.6729516883075735,0.42169174655043645,12.465672675997748,8.246398979636973,-3.757050909725819,-0.7636003301250098,0.09830379707071923,-0.6673759318210095,-1.3827068336080828,25.140919304606157,-20.2410016828507,0.0,0.0,0.0,0.0,0.0,0.0,0.0,0.0,0.0,0.0,0.0,0.0,0.0,0.0,0.0,1936.390129037489,1871.8385577958497,1867.1853035240952,1901.8913018225023,1928.1776869534697,1877.3344557472906,1866.8996018195025,1900.2794876265407,28.357012974511893,-1.182509268629881,-1.1596764352567615,-0.7505548364975092
129,1.300000000000001,2.6445997297806154,0.6685677961779865,3.04935280953029,0.3532237425863318,-0.4978145054617065,0.669252209901472,0.4236923239418167,12.450451345145286,8.496153058909517,-3.958300413362484,-0.9594489092190112,-0.307040674622127,-0.678388498508259,-1.6358406704100048,24.920658457459055,-20.0426545201835,0.0,0.0,0.0,0.0,0.0,0.0,0.0,0.0,0.0,0.0,0.0,0.0,0.0,0.0,0.0,1944.2531920289039,1845.2538928445674,1847.3994179215,1913.1298191343722,1927.4154810430193,1861.938056510977,1857.821581260617,1903.202916853067,28.747100462961498,-1.6011477787525767,-2.5101608911175055,-0.7704477479580009
130,1.310000000000001,2.769017585448119,0.7547755895800486,3.0087714305534425,0.3537943691010762,-0.5008336149335807,0.6644974759683097,0.42712801239988835,12.432693376362403,8.745449365531783,-4.157598995146213,-1.0713801890889632,-0.6768494753792518,-0.6883944448808019,-1.891384083153369,24.942607265584726,-19.821462369308485,0.0,0.0,0.0,0.0,0.0,0.0,0.0,0.0,0.0,0.0,0.0,0.0,0.0,0.0,0.0,1940.315317745266,1848.6799561307944,1847.4393914854113,1915.170875031527,1927.8589552449682,1861.3073390310549,1856.018870314417,1907.4915337606806,27.257643653847143,-1.692202718100057,-4.652611986490418,-0.7930065480594116
131,1.320000000000001,2.8932451626273594,0.8434858949666212,2.9662073789321823,0.3557912164247132,-0.5029693856872873,0.6581946451513513,0.4326825816582666,12.412381415980036,8.997328678690698,-4.354792752488288,-1.3536310620379879,-1.4896772787805912,-0.698919395855456,-2.153896245829401,25.345321772354268,-19.573673531014357,0.0,0.0,0.0,0.0,0.0,0.0,0.0,0.0,0.0,0.0,0.0,0.0,0.0,0.0,0.0,1997.1913008508425,1812.9735524674722,1819.1069719558488,1963.751809145315,1966.9690495737873,1848.6925452935957,1844.9531838864414,1941.6944519666956,25.423383461994217,-1.5731886101288746,-6.003649935316725,-0.8148795470263384
132,1.330000000000001,3.0172545628198035,0.9346868223680499,2.921708555129444,0.3608778762396203,-0.503058191755733,0.6493219903699761,0.4416792580257828,12.389014220878991,9.241494536535141,-4.543197906843348,-1.5277367178915982,-2.889785245864072,-0.713290870133927,-2.4591491637817597,24.212180644996195,-18.401189377794225,0.0,0.0,0.0,0.0,0.0,0.0,0.0,0.0,0.0,0.0,0.0,0.0,0.0,0.0,0.0,2008.045041919768,1700.4806752818884,1700.1646048033476,1976.5173336208456,1959.0753498402294,1755.1892196974868,1746.9350794804334,1934.1591317626678,24.35037519205862,-1.823009873700535,-6.712734406909993,-0.7945196116556767
133,1.340000000000001,3.141016389553642,1.028267144751249,2.875391914158891,0.37019655966312837,-0.5001374856828101,0.6374998518007089,0.45432470941226044,12.36298298892,9.472676076107694,-4.717671628072339,-1.5493072681716602,-4.2495874062530765,-0.732078356265262,-2.6926964955773514,22.81315676201423,-16.839934885917174,0.0,0.0,0.0,0.0,0.0,0.0,0.0,0.0,0.0,0.0,0.0,0.0,0.0,0.0,0.0,1946.5311409638452,1640.346353584195,1623.224107687865,1925.0125332600455,1905.520027918596,1681.9568334249186,1664.7039036928202,1886.1352912171637,21.93770395024342,-1.68292110743314,-6.569778035935439,-0.7910964641819596
134,1.350000000000001,3.2645081730970795,1.1241099179749041,2.8274050955442966,0.3830049999255134,-0.4944265948278578,0.6228118076738772,0.47005846932161993,12.335106237797937,9.694934937992398,-4.877209014154262,-1.7035998255975655,-5.320041985874457,-0.7494123591242339,-2.8569273921377203,22.09937750702551,-15.310302901455408,0.0,0.0,0.0,0.0,0.0,0.0,0.0,0.0,0.0,0.0,0.0,0.0,0.0,0.0,0.0,1879.3960665639647,1625.681821473175,1621.131705097936,1862.215505588408,1848.6146919371229,1656.3040206270618,1648.191758368819,1836.224337519823,19.229506194052185,-1.8548934218335844,-7.48720950788652,-0.8044276904366989
135,1.360000000000001,3.387713146825334,1.2221045888141329,2.7779098599582435,0.3978998467619853,-0.4866238624546852,0.6059352550111781,0.4875606579401284,12.305656535182733,9.901265067410941,-5.018858968502201,-1.6949864182628707,-5.852525434718515,-0.7652334608121291,-3.0028156369414916,20.171725277464247,-13.433303112521777,0.0,0.0,0.0,0.0,0.0,0.0,0.0,0.0,0.0,0.0,0.0,0.0,0.0,0.0,0.0,1734.5541000358935,1600.7545179215056,1591.0224896444522,1729.26887085242,1720.5047618431006,1605.843063468304,1596.0385369808655,1717.300492830554,23.217930928611278,-2.442840060980517,-9.600724103246204,-0.8014732417974125
136,1.370000000000001,3.5106169977589436,1.322052410711297,2.7270901628789512,0.4141774188776566,-0.4770086466004862,0.5870796746769802,0.5062186013387753,12.27492134738423,10.08503141784663,-5.14224873211691,-1.7917940461942476,-6.576952678008687,-0.7811898880557556,-3.1226156788388693,17.817655293285384,-11.637375491967639,0.0,0.0,0.0,0.0,0.0,0.0,0.0,0.0,0.0,0.0,0.0,0.0,0.0,0.0,0.0,1649.9155712537224,1471.3981443965279,1464.864620265099,1642.8548425438557,1619.0059070518023,1494.860712887946,1486.4271468548145,1614.8587724004867,25.686325364740917,-3.1381636946608045,-10.0,-0.7879838464498319
137,1.380000000000001,3.633208161606145,1.4238949158965357,2.6751011999942835,0.4323886066689954,-0.46477290635410984,0.5647457077246244,0.5273409939959266,12.243099017238345,10.28955059384673,-5.253446945345376,-2.153480153378105,-7.909694740181818,-0.796422804515813,-3.244224976231891,21.649999859103986,-10.45826275861561,0.0,0.0,0.0,0.0,0.0,0.0,0.0,0.0,0.0,0.0,0.0,0.0,0.0,0.0,0.0,1856.221651692027,1525.9524378610377,1548.58340405516,1837.4388648203446,1809.34263100064,1603.5168372813882,1606.9427962915922,1803.349469559745,26.23604625698317,-3.4458587608901783,-10.0,-0.7598673784769475
138,1.390000000000001,3.7554732436444995,1.527953678334391,2.6220788591962947,0.45210567761717063,-0.4497812205626602,0.5377767631789441,0.5514466999450268,12.209524543177103,10.52648195313002,-5.347483162534554,-2.6821287938587326,-8.805559692285865,-0.8171898382287937,-3.4713895385642957,24.52878950970927,-8.40205070582467,0.0,0.0,0.0,0.0,0.0,0.0,0.0,0.0,0.0,0.0,0.0,0.0,0.0,0.0,0.0,1909.5523401838575,1660.8430025397263,1706.5105272828955,1878.7296515878775,1882.8757647182201,1701.2924189127164,1723.1103178178025,1874.1057366652883,28.040578010187282,-2.919345640842912,-9.999999999999998,-0.780572944510665
139,1.400000000000001,3.877388756016712,1.6344689350470847,2.568232167768127,0.4717812850102715,-0.43300544064567476,0.5067818194887658,0.5771489365154875,12.172986232577381,10.777812218982364,-5.417523435362175,-3.084375080085901,-9.315931190085793,-0.8389246310968724,-3.8202057878553575,25.37792990531962,-5.821704421069995,0.0,0.0,0.0,0.0,0.0,0.0,0.0,0.0,0.0,0.0,0.0,0.0,0.0,0.0,0.0,1882.616056417858,1729.4249491660141,1779.2978574209822,1864.8729899742405,1866.0588387816385,1748.4440068632803,1782.1111581128546,1866.1116095837813,29.16080203586293,-2.9523650092579836,-9.999999999999998,-0.7933887133006637
140,1.410000000000001,3.9989185896787363,1.7435657879366102,2.51382553825964,0.4910815284590128,-0.4144281638296061,0.4732312499788504,0.6026113286975577,12.132233546109935,11.043994467993757,-5.458630863037197,-2.992806440199801,-9.606449041470162,-0.8609896749823908,-4.271358129791736,27.046801505001383,-2.7268668952871167,0.0,0.0,0.0,0.0,0.0,0.0,0.0,0.0,0.0,0.0,0.0,0.0,0.0,0.0,0.0,1898.969426900784,1834.835536330153,1846.7633225213553,1917.0354434690953,1897.6623758489807,1841.440340286419,1857.0106634791914,1914.3524176066019,29.03121115147681,-3.7762527301036095,-9.999999999998558,-0.7822987513912462
141,1.420000000000001,4.120018064752744,1.855385709425704,2.459168711194968,0.509793224122473,-0.39410641580876327,0.43798802022276223,0.626863219369688,12.086878684820661,11.32100128335939,-5.467159192815378,-2.991977128732889,-9.769927205239988,-0.8825630716490331,-4.7430753011532545,27.816470965904116,0.6297128011629738,0.0,0.0,0.0,0.0,0.0,0.0,0.0,0.0,0.0,0.0,0.0,0.0,0.0,0.0,0.0,1919.0645888270726,1890.3440395850523,1895.9365991995116,1946.3054720163243,1919.0473136691976,1893.1997725752929,1902.761754856574,1944.560387602774,28.903417371285336,-4.1072010824821525,-10.0,-0.7709292770900402
142,1.430000000000001,4.240640718211999,1.969972823654112,2.4045884844238974,0.5270343953783505,-0.3730249713565211,0.4004686017572283,0.6501630686522065,12.036772415971837,11.595204099774383,-5.443612927569767,-3.4344859533596037,-9.860972044744639,-0.9037616496250452,-5.259276028358073,27.080735678536527,3.7840508355238,0.0,0.0,0.0,0.0,0.0,0.0,0.0,0.0,0.0,0.0,0.0,0.0,0.0,0.0,0.0,1920.2984939846617,1877.725555157862,1917.9573405927254,1926.0485163421085,1911.492310515366,1885.6316881505434,1913.3680409564402,1932.1465412529967,30.277968564185905,-3.9948570677043858,-9.999999999999215,-0.7297685970277393
143,1.440000000000001,4.360733652087325,2.0872578229994163,2.3504011941426843,0.5423086972444188,-0.3517630237617012,0.36036805231467256,0.672531723324644,11.98070457864888,11.859919194885777,-5.388613706206349,-3.7967921038746955,-9.911231251416252,-0.9250054981087619,-5.916237998420115,25.95600319059521,6.916886360759378,0.0,0.0,0.0,0.0,0.0,0.0,0.0,0.0,0.0,0.0,0.0,0.0,0.0,0.0,0.0,1912.344659511348,1871.0843507191312,1924.2807719138402,1918.4276401996735,1903.1791737739013,1878.8020486750943,1918.0588400717475,1925.70903241524,32.11423083390455,-3.2715152963255862,-9.999999999999998,-0.7507007348811985
144,1.450000000000001,4.480227125998358,2.2071611172712364,2.296941039661488,0.5557809414371288,-0.33002130802153323,0.3183594697654682,0.6934268017589637,11.916513044730602,12.119881998981022,-5.297076742151395,-3.9050338783546703,-9.939059950028536,-0.9417540977852339,-6.808438943927797,25.59950311687409,10.782917383492574,0.0,0.0,0.0,0.0,0.0,0.0,0.0,0.0,0.0,0.0,0.0,0.0,0.0,0.0,0.0,1938.7226000186636,1918.8526005276099,1966.2056938130956,1972.4072194576365,1937.384878744495,1923.251404393718,1967.1072993954067,1977.0853949777413,34.1354770123318,-3.229143854768137,-9.684259696715994,-0.7714732562436102
145,1.460000000000001,4.5990308269445555,2.329645797418241,2.244601232559307,0.5679517297202166,-0.30692772241157873,0.27580587190874595,0.7121497924901131,11.842634314234465,12.375804992141623,-5.163958577593166,-3.577637125819468,-9.955498258921182,-0.9551908589404237,-7.787522626850674,25.048624762460392,15.044529446801569,0.0,0.0,0.0,0.0,0.0,0.0,0.0,0.0,0.0,0.0,0.0,0.0,0.0,0.0,0.0,1978.6894620202477,1995.4864786885335,2007.6454504775584,2043.8062848928944,1986.9955495919621,1992.8932363995673,2017.0353930749638,2041.1327331704351,35.65426956937638,-3.790473031539123,-9.999999999999998,-0.7605313548053888
146,1.470000000000001,4.717046286651399,2.4546532350129224,2.1938126271920306,0.5788469150310765,-0.2825544361017113,0.23341438328991998,0.7284345991725242,11.758857800514697,12.623561239785694,-4.986625348196555,-3.4245363346919713,-9.823462770215194,-0.9668489634963764,-8.775653086940949,23.994317191874615,19.481409939893446,0.0,0.0,0.0,0.0,0.0,0.0,0.0,0.0,0.0,0.0,0.0,0.0,0.0,0.0,0.0,2028.2661422483145,2072.773010727587,2082.033490066198,2091.2370569623517,2040.6462783107163,2066.6130016283164,2084.1573761381287,2095.7907423103206,35.878489197496634,-4.018140886599882,-10.0,-0.7534366013492123
147,1.480000000000001,4.834175689431875,2.582062284234887,2.145009403438096,0.5880741382256792,-0.2576922516818509,0.19027889270289305,0.7426691419232546,11.665417238035193,12.854597549532631,-4.767535427308608,-3.650560086596154,-9.896155720823177,-0.9769629938843265,-9.755930307004945,21.962542195440804,23.505048288263275,0.0,0.0,0.0,0.0,0.0,0.0,0.0,0.0,0.0,0.0,0.0,0.0,0.0,0.0,0.0,2103.2258478991157,2087.687614259939,2124.952645079623,2143.8634382312684,2098.0823659717767,2097.345549366512,2128.2840041569484,2145.8739842622404,35.92738146791263,-3.8629739919896497,-9.999999999999998,-0.7056668566075156
148,1.490000000000001,4.950325256208703,2.711646449265997,2.0985671927211005,0.5954763021498234,-0.23252411171751586,0.1456514968702783,0.7550669854439405,11.563060087779672,13.056609650766891,-4.516334661197639,-3.8596044433059578,-9.928024466193568,-0.987400662892761,-10.620983170360532,18.637641174706232,26.301748658024593,0.0,0.0,0.0,0.0,0.0,0.0,0.0,0.0,0.0,0.0,0.0,0.0,0.0,0.0,0.0,2112.8883603095246,2092.35792670612,2140.734329752689,2148.2803226842066,2108.181922354334,2097.427676739145,2137.835997124161,2152.670098579243,34.73947621098433,-3.5664031512717913,-9.48443874455241,-0.716072885876387
149,1.500000000000001,5.0654086248339985,2.8430728077938663,2.0547632868606702,0.6011068761097035,-0.2069026185357077,0.10013581205600376,0.7653983597320978,11.452246105821892,13.22224220162403,-4.240871056629251,-3.871545662528564,-9.948079994468719,-0.9930143658420378,-11.445833300232522,14.807619363379487,28.476845548703444,0.0,0.0,0.0,0.0,0.0,0.0,0.0,0.0,0.0,0.0,0.0,0.0,0.0,0.0,0.0,2102.9380979388734,2096.135623682226,2143.831823049937,2158.4166427789173,2101.690186198085,2096.890184430984,2143.8597808496875,2159.2532568611023,22.325494923299978,-3.2057372708475165,-8.349784275431091,-0.7330619358836453
150,1.5100000000000011,5.179350938927572,2.9759458985821734,2.0137818967566763,0.6050695510706706,-0.1808575859973787,0.054901653497845454,0.7734126844043487,11.335362527233054,13.345084173133772,-3.954281966897843,-3.7258997159427647,-9.727437936784684,-0.9954696993723227,-11.938763653724038,10.36723133224804,29.053708479240825,0.0,0.0,0.0,0.0,0.0,0.0,0.0,0.0,0.0,0.0,0.0,0.0,0.0,0.0,0.0,2040.6540244711791,2090.486852096935,2124.381820356955,2110.6215011437257,2049.974899900539,2078.19079537014,2116.963770140648,2114.7570838848796,10.492673554344508,-3.1581601786790956,-8.425587487654592,-0.7074603962872988
151,1.5200000000000011,5.292174072295441,3.1097447320324654,1.9753790100044266,0.6074853378108689,-0.15538157253971646,0.01165758091342347,0.7788980883704533,11.232169042266795,13.405021380354661,-3.740652802523571,-3.469214976639026,-9.092809542723188,-0.9941924534428788,-9.842897251669314,3.867388670139249,18.836079095857272,0.0,0.0,0.0,0.0,0.0,0.0,0.0,0.0,0.0,0.0,0.0,0.0,0.0,0.0,0.0,1581.8371811472412,1742.8375014997303,1769.9033565595448,1679.3450369669,1589.3876818782198,1699.0291868271177,1731.4683940390153,1679.1554369747637,11.198671310310957,-3.3932602139703065,-9.305719216724937,-0.688316828126412
152,1.5300000000000011,5.404081425596136,3.243874594464731,1.9385758555345711,0.6085286398539882,-0.13077063428733995,-0.02946881996128784,0.7821275627003763,11.152738721148191,13.414930647462082,-3.6352094021605392,-3.3299130654987796,-8.802468304542412,-0.9883177885530047,-7.349729782426095,-0.3029821669269239,7.838227665785791,0.0,0.0,0.0,0.0,0.0,0.0,0.0,0.0,0.0,0.0,0.0,0.0,0.0,0.0,0.0,1053.44329096447,1196.3951173086475,1248.0485497116915,1193.4010940940448,1037.5256004387702,1159.5724828968694,1218.0061650829857,1171.9750027232453,11.133317949384042,-3.1755988272597104,-9.282030337235954,-0.6404900671317081
153,1.5400000000000011,5.515238481417481,3.3779766840211103,1.902616372721495,0.6081681769242487,-0.10591790629955551,-0.07029948187691669,0.7835629193304079,11.07830344000908,13.402715383283574,-3.556175182990926,-3.389644448437718,-9.024129337100101,-0.9798299524317987,-7.534498712766791,-1.9778578842402084,8.003862445020271,0.0,0.0,0.0,0.0,0.0,0.0,0.0,0.0,0.0,0.0,0.0,0.0,0.0,0.0,0.0,1165.7158127256691,1104.6069829819826,1187.196278179163,1276.5562277672248,1144.9628672695392,1131.110612893754,1207.5855551951918,1258.831324783842,9.131916870418886,-2.673865826505549,-9.072315237373335,-0.6530759976936034
154,1.5500000000000012,5.625642768888407,3.5118720542109925,1.8674518386754466,0.6063105227362607,-0.08004049883655584,-0.11136771265038307,0.7833123905213675,11.002404108446132,13.373503747004632,-3.4770607196690237,-3.29060172790373,-9.120715951556235,-0.9687770089997954,-7.627239182518508,-3.691109850651131,7.813270145268891,0.0,0.0,0.0,0.0,0.0,0.0,0.0,0.0,0.0,0.0,0.0,0.0,0.0,0.0,0.0,1140.3465649183454,1115.2794456275644,1200.3095496557746,1271.0826602528587,1139.0822182262339,1116.9309072808646,1204.4280373867048,1266.7698281595003,8.191798696327975,-2.4711337323706637,-9.127001545223798,-0.6686326439073386
155,1.5600000000000012,5.73529971854261,3.6453969323421305,1.8330108166221333,0.6030423578746121,-0.05320168212470191,-0.15142118061352883,0.7813969040697151,10.929685056841187,13.329221299239117,-3.4143196301724386,-2.9792046554747964,-9.08696314559977,-0.955733189719716,-7.1394359190346535,-5.046040959486575,5.635421563721987,0.0,0.0,0.0,0.0,0.0,0.0,0.0,0.0,0.0,0.0,0.0,0.0,0.0,0.0,0.0,990.3989997054053,1046.8534104056284,1103.119329710229,1157.8876185876393,999.3656695927044,1030.8907785517981,1100.1210202595194,1149.7376112918848,9.319297786358668,-2.5798400792182683,-9.660541789813504,-0.667896874055599
156,1.5700000000000012,5.844248357553118,3.778415469021789,1.7991129921078894,0.5984141517764734,-0.025497987674194297,-0.19003412253622692,0.7779057705468555,10.860539357568845,13.272528836435725,-3.3673897929483365,-2.7367839388379736,-9.099041828867636,-0.9444920389696451,-6.808216673265477,-6.211661228093135,4.219942062005266,0.0,0.0,0.0,0.0,0.0,0.0,0.0,0.0,0.0,0.0,0.0,0.0,0.0,0.0,0.0,936.3076215623282,988.7445146574003,1033.9280809840677,1104.5653842609047,942.0439469181408,979.0052659711376,1040.2366189387612,1092.122779796196,12.648136722846132,-2.7344513099197147,-9.854673305551334,-0.642591862229003
157,1.5800000000000012,5.952508216706755,3.9107972729231313,1.765663948353633,0.5922647194186601,0.0031555561326159836,-0.22803239730591163,0.7727960729560864,10.791241396857494,13.201156308743602,-3.322101791789517,-2.682311321193893,-9.34218709486676,-0.9338525853014764,-6.944453956052143,-7.82556231590803,4.487334909958118,0.0,0.0,0.0,0.0,0.0,0.0,0.0,0.0,0.0,0.0,0.0,0.0,0.0,0.0,0.0,1059.0592090538678,998.4068120750602,1062.0077625612435,1187.4801285470096,1047.133274172317,1020.183032977786,1084.85678922137,1172.0549786677602,16.116885197435238,-2.3917138431980196,-9.638154203638518,-0.5745624130689209
158,1.5900000000000012,6.060052740706636,4.042356650980924,1.7327320715025567,0.5843990606776318,0.03270434955612414,-0.2661777143596052,0.7658704771549225,10.7167229133585,13.106372323809538,-3.261612256675381,-2.7315872851244363,-9.556654068934415,-0.923282859199112,-7.599460860419072,-10.515530691590058,6.40319643555598,0.0,0.0,0.0,0.0,0.0,0.0,0.0,0.0,0.0,0.0,0.0,0.0,0.0,0.0,0.0,1240.5035852327132,1173.6708259273532,1250.447593511684,1338.995020339467,1237.8180939747879,1196.1854815811419,1265.6802170276728,1340.6698146318383,31.041517014812193,-2.1997949961116237,-9.999999999989454,-0.569120548797179
159,1.6000000000000012,6.166818917056317,4.172818307025292,1.7004977845580767,0.5748607634555827,0.0628300852398955,-0.3037734698277918,0.757171818055054,10.635630461364132,12.9807234901404,-3.183020898159742,-2.564685421503139,-9.582618247538965,-0.9064770443864977,-8.232755977330086,-13.789470258146252,8.086434038705015,0.0,0.0,0.0,0.0,0.0,0.0,0.0,0.0,0.0,0.0,0.0,0.0,0.0,0.0,0.0,1362.55347040275,1374.4138405693175,1439.9078433257437,1480.7848066288034,1378.5786666258348,1376.474521783868,1449.217643331989,1487.2416309697855,42.168834799534075,-2.2152954553133135,-9.99999999999936,-0.5666622487990758
160,1.6100000000000012,6.272671639522428,4.301681396840852,1.66935244277634,0.5636240651536031,0.09358112449124947,-0.34026003218524026,0.7468558072452671,10.530260738041411,12.77566209528622,-3.0324541643856904,-2.394227736135658,-9.760543503904216,-0.8867866986938451,-11.345755411202418,-24.000206445085936,17.30460930253175,0.0,0.0,0.0,0.0,0.0,0.0,0.0,0.0,0.0,0.0,0.0,0.0,0.0,0.0,0.0,1923.6706256597702,1908.230442647245,1948.1944984826634,2012.8010880652319,1948.6385296867138,1939.7858413623226,1986.586796116334,2026.9024531452653,43.36427156157082,-2.236056532172772,-9.365583440674223,-0.6373662357651578
161,1.6200000000000012,6.377340588156618,4.427978006513653,1.6400814585394174,0.5505896170089545,0.12493762307017364,-0.37585762404103873,0.734828354402396,10.400707119439152,12.467614301176132,-2.8146317046734484,-2.324578764653816,-9.85701899435139,-0.8687104698751994,-13.37093153134461,-34.29576614361274,22.62870245594728,0.0,0.0,0.0,0.0,0.0,0.0,0.0,0.0,0.0,0.0,0.0,0.0,0.0,0.0,0.0,2261.8056892448035,2256.937247110834,2293.0969648598298,2330.2816505869673,2279.3930200043587,2274.917634803959,2312.3577795426663,2343.99615601289,44.55543633489922,-2.014386583967094,-8.375977085334194,-0.7103394507691596
162,1.6300000000000012,6.480682722955166,4.550841206558136,1.6130355217720003,0.5361929636581828,0.1558504421361547,-0.4101549667425765,0.7210968372318768,10.268566729837854,12.098135888930454,-2.5989386166805493,-2.298123371291098,-9.628779070019,-0.8589263932496679,-12.935215781716636,-38.63680459515173,20.226831527171196,0.0,0.0,0.0,0.0,0.0,0.0,0.0,0.0,0.0,0.0,0.0,0.0,0.0,0.0,0.0,2291.614727566464,2335.7086988782353,2362.1049412592342,2341.172869452146,2303.7938401558913,2329.634754295765,2355.68018970149,2351.5201059233136,43.85549724788177,-1.3460353993117882,-7.665791879940893,-0.626088910140133
163,1.6400000000000012,6.582730973221931,4.669810919622953,1.5880057353446655,0.5212239431908094,0.1851701321631334,-0.4420792406243789,0.7061186643959243,10.14217360084154,11.690019915714174,-2.4123328306286473,-2.1630141345330984,-9.06837594174434,-0.8578393294983457,-12.313290521232645,-42.228929297612794,17.133581692677424,0.0,0.0,0.0,0.0,0.0,0.0,0.0,0.0,0.0,0.0,0.0,0.0,0.0,0.0,0.0,2300.316379701369,2404.110235654069,2413.76346793818,2341.1009125505266,2321.188488474138,2388.3647602041865,2400.7719159213766,2357.291666031585,43.137448236408034,-1.01589603554869,-6.736374516608588,-0.6040300551753957
164,1.6500000000000012,6.683557561286651,4.784570874952557,1.5646572404680592,0.5061534327299835,0.21271614919211157,-0.47045981972233036,0.690816980419102,10.02484269161571,11.259189712445817,-2.264003797286687,-1.7436950140459186,-8.449262105509542,-0.847878962116463,-11.283932961269727,-43.864113117386694,13.093079088231985,0.0,0.0,0.0,0.0,0.0,0.0,0.0,0.0,0.0,0.0,0.0,0.0,0.0,0.0,0.0,2262.5805405126885,2396.4364042655848,2402.116792177716,2332.3901806685385,2283.293776738521,2375.7179931970477,2392.4038471009385,2340.850030710786,42.24581827566069,-0.7952357389575766,-5.7242774319772085,-0.589739021363726
165,1.6600000000000013,6.783263759315524,4.894954713373749,1.5425939458456273,0.49130853408192404,0.23841425526696272,-0.49491655313636745,0.675893610456104,9.918158372406506,10.815804407471928,-2.154869271694801,-1.38394565113086,-7.690910373583651,-0.8293956915170827,-10.20788025921604,-44.864383568409494,9.294106017080583,0.0,0.0,0.0,0.0,0.0,0.0,0.0,0.0,0.0,0.0,0.0,0.0,0.0,0.0,0.0,2229.0762221684886,2388.9921885412496,2393.7348115102222,2303.812489687815,2254.382073324631,2364.6172969552863,2379.9445522044994,2315.5240342706793,42.04798196256399,-0.6084983801013335,-5.5603711821882955,-0.5618481669757995
166,1.6700000000000013,6.881957102446506,5.000868893235568,1.521437845081941,0.4772747811713019,0.26173641634029776,-0.5155465235668598,0.6617511720105599,9.822237254133908,10.366262355908523,-2.082006721468238,-1.0960675730045997,-6.823188191137732,-0.807281521213724,-9.146781649674196,-45.23462800376876,5.82394430819555,0.0,0.0,0.0,0.0,0.0,0.0,0.0,0.0,0.0,0.0,0.0,0.0,0.0,0.0,0.0,2196.854715178539,2373.3242466824354,2381.7727322221135,2266.563540263727,2223.2351967782483,2347.866253527287,2363.7829343079256,2282.1489514099812,41.93373706919122,0.030427177709623,-5.190298548677494,-0.4894138744345358
167,1.6800000000000013,6.9797400264846585,5.1022589513375305,1.5008514632760737,0.4640712828711079,0.28293703247173196,-0.5330011967514939,0.6484552446637545,9.73586026444267,9.910700126758483,-2.040061548736695,-0.8578276412962811,-6.275745760624561,-0.7824331548986833,-8.233661731063435,-45.84884014249546,2.9231739686714775,0.0,0.0,0.0,0.0,0.0,0.0,0.0,0.0,0.0,0.0,0.0,0.0,0.0,0.0,0.0,2218.6965368616643,2340.5356556336765,2354.3171738975752,2283.175479949225,2232.3396506230742,2328.001729329522,2347.5596463635775,2288.5449464613885,40.75571323246201,-0.3929121462431951,-3.042551078444475,-0.5643241324974261
168,1.6900000000000013,7.076704533020746,5.19906513947768,1.4805451214681795,0.45113879500418885,0.30296627140511323,-0.5476107537122556,0.6362449909050342,9.658601971233093,9.44974655212148,-2.0255307118285213,-0.3997414900452111,-5.797794999445854,-0.7500960193955596,-7.3002160895647705,-46.31031479740777,0.3056518941018105,0.0,0.0,0.0,0.0,0.0,0.0,0.0,0.0,0.0,0.0,0.0,0.0,0.0,0.0,0.0,2214.576099809119,2330.852525175713,2342.157622674422,2295.996716839955,2231.9275217299573,2315.371792627575,2337.8310511886953,2299.13831072738,39.865048831936896,-0.4534730329428486,-1.2316371396175783,-0.6337986810217711
169,1.7000000000000013,7.172946666885983,5.29127510510522,1.4602526388615764,0.4397856927673595,0.32040981540452546,-0.5593270238381138,0.6253633943827936,9.591327098464175,8.993157863470882,-2.036879892487172,-0.42484978284629316,-4.566774106984398,-0.7256943939392739,-6.3537342671722286,-45.53027794652209,-2.129712203368328,0.0,0.0,0.0,0.0,0.0,0.0,0.0,0.0,0.0,0.0,0.0,0.0,0.0,0.0,0.0,2138.183354234036,2356.400601880325,2372.0965880991625,2182.2402367098043,2177.8409296981517,2319.7172095149485,2336.698203722641,2217.457741521157,39.66945475129085,-0.121991896090058,-0.22209268312707375,-0.6346454283877038
170,1.7100000000000013,7.268556737515382,5.378954497262542,1.4397385802247151,0.4319676170532824,0.33334308666532436,-0.5678171538483794,0.6163359831985057,9.531681666198837,8.54373152742356,-2.0687800608701092,-0.4463211866684728,-3.1008944631696416,-0.7124509308095619,-5.724032061863227,-44.76214600473938,-3.9039613807791973,0.0,0.0,0.0,0.0,0.0,0.0,0.0,0.0,0.0,0.0,0.0,0.0,0.0,0.0,0.0,2098.3175853901525,2358.391021686686,2370.1603182120043,2116.622171503029,2137.832327362476,2322.635855766294,2331.784398912533,2156.6507333429167,39.13952088612348,0.2183115158727637,1.3470132575928322,-0.6193777883042776
171,1.7200000000000013,7.3635947711912,5.46216055042271,1.4188318612497675,0.42775272754808835,0.34210401492144216,-0.5729431146763709,0.6096955259756622,9.47646839652323,8.097836141346356,-2.1143101359589056,-0.2728415020471446,-1.8441312824869522,-0.7024541840886933,-5.386197182401631,-44.511057683711996,-4.988416641849902,0.0,0.0,0.0,0.0,0.0,0.0,0.0,0.0,0.0,0.0,0.0,0.0,0.0,0.0,0.0,2106.3061642339626,2341.7639627176895,2344.1025452369304,2130.573764217982,2138.5054755948213,2313.22681853821,2318.9064964570994,2157.1704120076665,37.30210950958361,0.580738395418033,2.3085600232851426,-0.2934943425946541
172,1.7300000000000013,7.458095188173756,5.540931805805196,1.3974252041281796,0.42689253276075767,0.34721623976416066,-0.5745330206580902,0.6059005334959138,9.423926567076627,7.657311814559407,-2.1678531301473396,-0.015929499771343364,-0.43784634471062045,-0.6913580550393915,-5.183404017920168,-43.86582155031249,-5.5343492629846835,0.0,0.0,0.0,0.0,0.0,0.0,0.0,0.0,0.0,0.0,0.0,0.0,0.0,0.0,0.0,2074.8942296973764,2340.6937678664726,2336.6172349821136,2108.604377242584,2116.91204804597,2303.538871776162,2306.429999622029,2140.358720220485,38.623437265541156,0.8318163904833401,3.047648453224417,-0.5842447650660583
173,1.7400000000000013,7.552080126312078,5.615366152676477,1.3754638218081332,0.4292083656603803,0.34890477664321284,-0.5724873228041196,0.605230452729592,9.373309297775215,7.2323865089888635,-2.2245013501469977,0.29490603335742266,0.7615213691355156,-0.6513865537417942,-5.014153706742519,-41.939164252644545,-5.633795996792035,0.0,0.0,0.0,0.0,0.0,0.0,0.0,0.0,0.0,0.0,0.0,0.0,0.0,0.0,0.0,2008.3131724329623,2255.5585555917123,2295.2340092722843,2100.796159037972,2040.2239808077377,2222.298535935596,2271.7224725174533,2121.8486249384346,39.31171526128347,0.7775541682633371,3.353842504769472,-0.5658294811555559
174,1.7500000000000013,7.645560070566814,5.685564718156433,1.3529488314719413,0.4340320303013146,0.34778447698788745,-0.5672538441946946,0.6073592268872858,9.322521873803156,6.806019008454517,-2.277365929643273,0.5718954827684336,1.7598901080082225,-0.6310073145006424,-5.114153781690334,-42.84199637329156,-4.9692172628375,0.0,0.0,0.0,0.0,0.0,0.0,0.0,0.0,0.0,0.0,0.0,0.0,0.0,0.0,0.0,2092.002191558089,2295.322555680038,2285.717286596478,2127.211799364353,2123.7860927107527,2273.1121726135093,2269.129272545754,2145.2979059475115,40.10034126041653,0.934157038002527,3.7590443738682597,-0.5327908051622169
175,1.7600000000000013,7.738526864465472,5.751467351854516,1.3299453369982408,0.44085854608217984,0.3444312718767491,-0.5596086922315862,0.611431887358294,9.270620754250947,6.3739818701866335,-2.3216524183083096,0.6722604959781134,2.452051323746986,-0.6237725852777621,-5.246227222448496,-43.25445425206009,-3.9680025677468755,0.0,0.0,0.0,0.0,0.0,0.0,0.0,0.0,0.0,0.0,0.0,0.0,0.0,0.0,0.0,2147.3399734306995,2284.674435521913,2284.1933778697767,2169.6011159179616,2164.1655708062813,2271.2344395418113,2273.9073173578286,2182.248551551137,40.88270941182479,0.9807826305562892,3.962100371011447,-0.5413317177598875
176,1.7700000000000014,7.83096679289186,5.813028696033836,1.3065551905199138,0.4491173308840195,0.33936481360176074,-0.5501199046918669,0.6168413384740583,9.217067521885872,5.937781123026933,-2.354199190128564,0.8118215119099368,3.0232916463248136,-0.6151831368658476,-5.430171981753773,-43.65665976118471,-2.6648304357910213,0.0,0.0,0.0,0.0,0.0,0.0,0.0,0.0,0.0,0.0,0.0,0.0,0.0,0.0,0.0,2181.289296880566,2291.6645156221066,2297.369285837657,2205.163383118446,2196.7530810383587,2279.3928236127863,2288.2434486886273,2216.8154255457184,41.921335324534205,0.9589200257851772,3.97000605077005,-0.5677680208305975
177,1.7800000000000014,7.922861409644199,5.870209510879901,1.2829100386903427,0.4583890495625748,0.3329366197490555,-0.539076084452383,0.6232412547663061,9.161514454285838,5.498022969565302,-2.372254157965482,0.9008739633424281,3.4305256024704196,-0.607987766275948,-5.641084472228997,-43.97304179425099,-1.1152145861670348,0.0,0.0,0.0,0.0,0.0,0.0,0.0,0.0,0.0,0.0,0.0,0.0,0.0,0.0,0.0,2220.434180710277,2299.5762772745707,2305.4125591046322,2238.619205111321,2231.2313777485165,2291.7532054842986,2299.962219608849,2246.0825607014294,42.90428117336759,0.8528944577916509,3.846455190094849,-0.5817274956988623
178,1.7900000000000014,8.014188990953844,5.922971988140799,1.2591672776060983,0.468256858728984,0.32553253233447277,-0.5269623030024458,0.6301387274716008,9.103601791286344,5.053924458541313,-2.3733582613363144,0.9323713430645804,3.662533248091803,-0.6049514595113279,-5.889802058439031,-44.42979563615079,0.6638148329058957,0.0,0.0,0.0,0.0,0.0,0.0,0.0,0.0,0.0,0.0,0.0,0.0,0.0,0.0,0.0,2269.2587997502096,2313.1196425039752,2317.933296190466,2277.7943186087978,2274.8581130717625,2310.832305942192,2316.2119957894456,2282.0903034786484,43.78793913513667,0.7015430486004997,3.618996078560376,-0.6108004637857913
179,1.8000000000000014,8.104924751218965,5.9712736730810745,1.2355050558867386,0.4783608211425705,0.31751457231602365,-0.5143304132795022,0.6370397531853995,9.043125848888378,4.606079021873296,-2.3559883452542527,0.8926365875427674,3.739247518824092,-0.6047815842465393,-6.152966193178955,-44.75317430823189,2.5456667766716734,0.0,0.0,0.0,0.0,0.0,0.0,0.0,0.0,0.0,0.0,0.0,0.0,0.0,0.0,0.0,2313.6946536414353,2325.2399549963875,2332.5274181392874,2314.332771373805,2314.538871840838,2327.2651675441894,2333.1651915585085,2316.2983126886456,44.163452650266194,0.4519050123898697,3.2643091103117463,-0.5707965497543644
180,1.8100000000000014,8.19504242029507,6.015085216223277,1.2121112443661084,0.48842002578779686,0.30919053889242204,-0.5017120432990982,0.6435309741399441,8.979961536053167,4.156166305906373,-2.319669771292471,0.7961281338526764,3.683079163031311,-0.6076071789675982,-6.42853050961989,-44.900618542730975,4.436819744180198,0.0,0.0,0.0,0.0,0.0,0.0,0.0,0.0,0.0,0.0,0.0,0.0,0.0,0.0,0.0,2353.468382423125,2337.7695590715857,2345.190197957692,2345.1454926656693,2350.510687686396,2343.3262189172256,2347.609449042994,2345.0606234418983,44.473373746572335,0.1705509161209004,2.847992856505403,-0.5344567000136711
181,1.8200000000000014,8.284515458024826,6.054404978084663,1.189170593556823,0.49821500684971715,0.3008164678369444,-0.4896668095578325,0.649243925843973,8.914216536959847,3.7084826837389144,-2.2656782632289643,0.619635624412317,3.4960499448894207,-0.6069164862813682,-6.688045150385236,-44.532429289301234,6.126873787412279,0.0,0.0,0.0,0.0,0.0,0.0,0.0,0.0,0.0,0.0,0.0,0.0,0.0,0.0,0.0,2374.584108048822,2331.6143699729546,2350.7287656759668,2367.205422159922,2366.8896823628584,2340.396646967832,2354.499481466032,2364.7962549459844,44.468321167182324,-0.14996641199612498,2.421938291607535,-0.4593481784629857
182,1.8300000000000014,8.373317617056081,6.089269405149038,1.166851281182504,0.507560618906564,0.29260379756003924,-0.47873240523152716,0.6538964137918682,8.845731995554353,3.2652442300766604,-2.1956738148918937,0.3899567388802359,3.209559617975452,-0.6005177205001371,-6.9780167449433605,-44.06106484885974,7.653781526019809,0.0,0.0,0.0,0.0,0.0,0.0,0.0,0.0,0.0,0.0,0.0,0.0,0.0,0.0,0.0,2390.867890029993,2326.533543060936,2355.3651619819802,2384.4759364831375,2380.5169501124305,2338.184807425547,2359.9930078453945,2380.738522698291,44.11105319436584,-0.6599252039719161,2.1793732836530206,-0.3902865460887452
183,1.8400000000000014,8.461420422206212,6.119733023154044,1.1453018754150477,0.5163458030574539,0.2846825999197729,-0.46932916365708127,0.65732257310153,8.774306491602212,2.8287012248910113,-2.112171936794873,0.11344161903120686,2.862996549173494,-0.5855638278331128,-7.287267564425548,-43.32536664201969,8.886180489760864,0.0,0.0,0.0,0.0,0.0,0.0,0.0,0.0,0.0,0.0,0.0,0.0,0.0,0.0,0.0,2393.040929652061,2314.514622120387,2357.1743122560547,2393.24400192804,2380.84507331,2327.4372723685456,2361.641542799629,2388.7595436022916,43.82780141182393,-1.1307721372728203,1.8801644386811807,-0.338566309663318
184,1.8500000000000014,8.548793330104427,6.145876596240665,1.1246410104509625,0.5246839900987507,0.2768304445834864,-0.46182475938015694,0.6593857043561252,8.699660450222996,2.401630248286352,-2.018520107024054,-0.28718284393590465,2.565042408123541,-0.5621456197058218,-7.643112946260189,-42.311043593298066,9.769220555270852,0.0,0.0,0.0,0.0,0.0,0.0,0.0,0.0,0.0,0.0,0.0,0.0,0.0,0.0,0.0,2380.320349869555,2300.9187177919407,2359.124969782453,2381.345596353639,2368.4595624447215,2313.001370930678,2359.0959322182516,2379.975672118873,43.612487605082784,-1.5565208150050909,1.5390714656375295,-0.3026135154425713
185,1.8600000000000014,8.635399589976354,6.1677979602860535,1.1049573269896962,0.5327312551279005,0.26875756402870304,-0.45643187806356156,0.6600278193186855,8.620763764633,1.9841078768648477,-1.9170466523067722,-0.7205068060997575,2.2651643980547878,-0.5331187649901264,-8.126186143844194,-41.39109937583729,10.465612799291923,0.0,0.0,0.0,0.0,0.0,0.0,0.0,0.0,0.0,0.0,0.0,0.0,0.0,0.0,0.0,2372.603515963279,2288.907182642222,2355.7573914871887,2373.723971438711,2359.784352494748,2302.570171262774,2355.304942627952,2372.5169521386288,43.40483909726453,-1.8754940742333142,1.0773661481861998,-0.28635826937080716
186,1.8700000000000014,8.721190031640166,6.18558728497912,1.0863201162869593,0.5404734247287942,0.26044551195103743,-0.4532523951338784,0.6592563073432767,8.536270783434759,1.5750452230494232,-1.8095186047860383,-1.148233821210196,1.947752847311581,-0.5016434432008693,-8.745810885031347,-40.58560950967105,10.988939920957952,0.0,0.0,0.0,0.0,0.0,0.0,0.0,0.0,0.0,0.0,0.0,0.0,0.0,0.0,0.0,2368.1995651644625,2280.411563396251,2349.058073009028,2369.7740860610766,2355.069442631472,2294.846242989769,2349.3611250773724,2367.748135558584,43.26598512482499,-2.1446149369870344,0.6088158886213944,-0.276864889737436
187,1.8800000000000014,8.806102269916108,6.199324797751216,1.0687805922939337,0.5477647749200317,0.25210789346210505,-0.4523020111681827,0.657128794152352,8.444940389971215,1.1736248234372657,-1.697843073697995,-1.5180316303826953,1.5664829771499205,-0.47092628129483954,-9.476878042642412,-39.853445649736585,11.312536959916297,0.0,0.0,0.0,0.0,0.0,0.0,0.0,0.0,0.0,0.0,0.0,0.0,0.0,0.0,0.0,2367.4308018166034,2272.0749041684007,2335.427689388369,2369.931370437039,2353.292397966185,2287.7477535449957,2338.487043326882,2365.0899057917177,43.19881928414706,-2.3839350183779557,0.17650534393207679,-0.26795305306146106
188,1.8900000000000015,8.890062687619453,6.209081615935103,1.0523708398149152,0.5544157416120071,0.24405124014971058,-0.4535559142880349,0.6537195195560106,8.345756777236094,0.7786989703826728,-1.5838711422545004,-1.8367029672566444,1.148238852462492,-0.44281664554133393,-10.300168109946384,-39.2531114319169,11.455691414385738,0.0,0.0,0.0,0.0,0.0,0.0,0.0,0.0,0.0,0.0,0.0,0.0,0.0,0.0,0.0,2366.6084486995105,2268.3761311835606,2324.499068792638,2369.973930620464,2352.7412321965467,2283.8786239581054,2329.190922542232,2363.7842186840735,43.101593219800506,-2.5590096584720223,-0.24672662267271706,-0.2740991399437665
189,1.9000000000000015,8.972988477806528,6.214915865736054,1.03710492353567,0.5603167115631437,0.23645998822723957,-0.45692789180124294,0.6491138254610748,8.237893126247995,0.38889416560264056,-1.4693739785959103,-2.1155903641185856,0.7246536557747562,-0.41772733469865225,-11.198777120824843,-38.79180776261387,11.42413107107143,0.0,0.0,0.0,0.0,0.0,0.0,0.0,0.0,0.0,0.0,0.0,0.0,0.0,0.0,0.0,2365.0653204072855,2269.0509747618653,2318.7349736889355,2369.0397279223575,2352.026596540196,2283.709687311326,2323.9747463373533,2362.645750679271,43.01242913242542,-2.652292124695345,-0.661432021367846,-0.2883408436183805
190,1.9100000000000015,9.054789906373516,6.216874261381569,1.022978201856145,0.5653966078981887,0.229462012487025,-0.4622646659240565,0.6434168471844258,8.120822002485523,0.00343593741197782,-1.3563822959490413,-2.340867937011621,0.3012554331925306,-0.39697100295131915,-12.135750902992015,-38.38446557285176,11.181094481555354,0.0,0.0,0.0,0.0,0.0,0.0,0.0,0.0,0.0,0.0,0.0,0.0,0.0,0.0,0.0,2362.875920535289,2270.8177518702487,2311.81559139408,2366.13829019972,2350.5332287502824,2284.5341040856983,2317.7250856114456,2359.1212041817653,42.96149478115323,-2.6945478121991115,-1.0430264129177298,-0.30517043163597735
191,1.9200000000000015,9.135373271746598,6.214996892648968,1.0099656463589073,0.5695787288076655,0.22321370127427517,-0.469352436561932,0.636760555897317,7.994251798300083,-0.37838439916338046,-1.2468511246985836,-2.49784805542922,-0.11820694867202686,-0.3815485965673886,-13.091646782460664,-38.053652460112716,10.751581129258225,0.0,0.0,0.0,0.0,0.0,0.0,0.0,0.0,0.0,0.0,0.0,0.0,0.0,0.0,0.0,2360.357938124272,2273.8626593782465,2304.5663618176095,2363.3156902489163,2348.9918574917965,2286.3292364361537,2311.462427019634,2355.55302478455,42.99632310052736,-2.693133581948334,-1.3745574834934,-0.3201230165126413
192,1.9300000000000015,9.214642919380235,6.209315655138378,0.9980239720447851,0.5728046583431944,0.21785120256802595,-0.4779496718345329,0.6292851405470048,7.858078944426345,-0.7574910874084865,-1.1424748915386063,-2.5965357144020893,-0.520717846033639,-0.37145054708071185,-14.04947194570827,-37.81938381723193,10.162299687567877,0.0,0.0,0.0,0.0,0.0,0.0,0.0,0.0,0.0,0.0,0.0,0.0,0.0,0.0,0.0,2357.6552084067794,2278.6842098756074,2299.6751366891713,2360.544365466485,2347.5946608473646,2289.6069582205805,2307.124190867723,2352.5748579006518,43.02690072756766,-2.6264281241006953,-1.6445711092031274,-0.32384285774481564
193,1.9400000000000015,9.292502698530468,6.199851861999408,0.9870945107633061,0.5750573903641161,0.21344461648259241,-0.48780126686852304,0.621128261733175,7.712288537383017,-1.1350915596218893,-1.0446223013076876,-2.6444057703868045,-0.891807735871401,-0.3659087786225239,-15.004663216769742,-37.71236591070392,9.448729801399214,0.0,0.0,0.0,0.0,0.0,0.0,0.0,0.0,0.0,0.0,0.0,0.0,0.0,0.0,0.0,2355.690356814676,2286.210007217309,2299.1482358588064,2359.03420491672,2347.2067772314313,2295.446273878037,2306.6812346125116,2351.429211655627,42.90159802450722,-2.4821334015978604,-1.8261898562309642,-0.2915822499049634
194,1.9500000000000015,9.368857510129322,6.186616446785795,0.9771050785207338,0.5763513691897856,0.21002379450288822,-0.49861149501303736,0.6124505547524078,7.55715931346745,-1.5118901864040333,-0.954702638830154,-2.6332299710149094,-1.218370069849541,-0.36310860551664004,-15.917234864896379,-37.651683711129145,8.59407041971305,0.0,0.0,0.0,0.0,0.0,0.0,0.0,0.0,0.0,0.0,0.0,0.0,0.0,0.0,0.0,2351.3189834720174,2293.7684238869215,2300.85294829105,2357.6847927817275,2344.6754976219504,2300.8366956697996,2308.1399816546236,2350.525369758051,42.75541510583134,-2.27330134141211,-1.9738615006454334,-0.2560665207266835
195,1.9600000000000015,9.44361789730481,6.169619009761662,0.9679680537198226,0.5767296654205627,0.2075914983277418,-0.5100182961801809,0.6034649951798318,7.3935865449203355,-1.8873666796906103,-0.8744083749880945,-2.553288596719342,-1.48107354088141,-0.3587060094761581,-16.716486998961777,-37.499379500324224,7.569283864093057,0.0,0.0,0.0,0.0,0.0,0.0,0.0,0.0,0.0,0.0,0.0,0.0,0.0,0.0,0.0,2338.144518879613,2296.2508576719574,2302.7661780350113,2353.9559819085266,2333.8054648509924,2300.301311305059,2309.2534446794352,2347.3635820726554,42.65381447540731,-2.044866894154304,-2.055648588664104,-0.2196298935109973
