,t,px,py,pz,qw,qx,qy,qz,vx,vy,vz,omex,omey,omez,accx,accy,accz,taux,tauy,tauz,jerkx,jerky,jerkz,snapx,snapy,snapz,bomex,bomey,bomez,baccx,baccy,baccz,mot1,mot2,mot3,mot4,motdex1,motdex2,motdex3,motdex4,f1,f2,f3,f4
1,0.02,-5.831683017978332,3.3846433970004695,0.47286813246834947,1.0,1.2165270103623684e-27,5.303110032292305e-28,3.800941958135414e-28,-2.179782825712783e-25,-3.4129344392143555e-26,-0.09757584519572364,-4.141282798647678e-26,2.3232383638905356e-26,-9.193392323964714e-27,6.188438374608807e-26,1.3151740059805933e-26,-9.713603135827475,0.0,0.0,0.0,0.0,0.0,0.0,0.0,0.0,0.0,0.0,0.0,0.0,0.0,0.0,0.0,0.0,0.0,0.0,0.0,0.0,0.0,0.0,0.0,14.117176802945016,10.0,4.702999631642943,0.3262844985941935
2,0.03,-5.83168265700554,3.3846422571388155,0.47188869311374637,0.9999773292188688,0.006365941996031183,0.002173743006023235,-0.00030111815778404794,0.00019625281145637768,-0.0006023532532842847,-0.06285824258429698,3.4351899278176536,1.280156727014371,-0.16786988921827178,0.07004263897220585,-0.20761030808164796,8.971326949801226,0.0,0.0,0.0,0.0,0.0,0.0,0.0,0.0,0.0,0.0,0.0,0.0,0.0,0.0,0.0,0.0,2300.097486095877,666.544746090502,1646.6903543757112,0.0,2102.9495774720763,1115.8059324741394,1534.180281836576,14.117176802945016,10.0,4.702999631642943,0.3262844985941935
3,0.04,-5.831672509307488,3.384614334392417,0.47159803899276553,0.9994037651561808,0.0319173948079634,0.013107615681212914,-0.001258773798390542,0.002323071313780718,-0.006107919685045633,-0.0021409965621789354,6.463832740068742,2.9354162802369994,-0.17184768136474649,0.3548999310646157,-0.8711793310008947,4.568401124090919,0.0,0.0,0.0,0.0,0.0,0.0,0.0,0.0,0.0,0.0,0.0,0.0,0.0,0.0,0.0,248.53096022190022,1702.8322351776262,1120.3154665401962,1531.8755935870945,512.14062969704,1605.0875632653979,1153.7304187963828,1515.2955324415643,14.117176802945016,10.0,4.702999631642943,0.3262844985941935
4,0.05,-5.831623493494626,3.384492140365576,0.4717882983319431,0.9971723375841325,0.0688223702960793,0.03013125971928141,-0.00170812515805475,0.00825816136736647,-0.020021658310520454,0.03960936292146084,8.124165850304015,3.797251113129735,-0.028936040838316794,0.8116724911854797,-1.8643798433670178,4.065837577553244,0.0,0.0,0.0,0.0,0.0,0.0,0.0,0.0,0.0,0.0,0.0,0.0,0.0,0.0,0.0,852.5678007608473,1472.2790770833442,1219.9676525901414,1435.0092217092274,940.9238943426994,1435.533206229706,1233.1720156059405,1413.8606575693327,14.117176802945016,10.0,4.702999631642943,0.3262844985941935
5,0.060000000000000005,-5.831490049433138,3.3841766123819035,0.4723837575852865,0.992477125817634,0.11168104265373126,0.050145798778123155,-0.0013777900593528868,0.019348664954539588,-0.045050529863297224,0.07903490560001698,8.997536628525324,4.238169238650793,0.12210724025937801,1.3594071508732202,-3.038481111707805,3.809507422385658,0.0,0.0,0.0,0.0,0.0,0.0,0.0,0.0,0.0,0.0,0.0,0.0,0.0,0.0,0.0,1063.2268369548724,1376.4998908482785,1247.864613851051,1370.2797982538439,1105.7668661200182,1356.666915831585,1252.2724604042057,1354.3842668982463,18.042117957073867,4.348405962091849,1.501362191420303,0.05489037396527585
6,0.07,-5.831217615266919,3.3835508253544164,0.4733568419232593,0.9849205438256077,0.15751696890323766,0.0715530638688725,-0.0002931020011289521,0.03609895251485711,-0.08214585815737095,0.1148246960945006,9.461681038302038,4.466950429518408,0.2655993431733105,1.9349028072178296,-4.260336821891822,3.364150317388875,0.0,0.0,0.0,0.0,0.0,0.0,0.0,0.0,0.0,0.0,0.0,0.0,0.0,0.0,0.0,1170.3247285155837,1331.5494830745583,1252.376445165002,1324.0603851570647,1193.3741469887912,1323.2782994577562,1251.8180646213607,1312.8414835004905,23.470229343687624,6.1889405920747045,2.1112642833816864,0.017746357719172552
7,0.08,-5.830729577202868,3.382450535069555,0.4747786788796826,0.9759805159668993,0.19842300474549926,0.08993887923588773,0.0011582929444124853,0.06324376538744815,-0.1417053312122978,0.1731466284173724,7.021030396164697,3.0043662235105635,0.3084910720790956,3.021633395704895,-6.635183876660094,5.925432786252488,0.0,0.0,0.0,0.0,0.0,0.0,0.0,0.0,0.0,0.0,0.0,0.0,0.0,0.0,0.0,1780.6040761090787,994.2390983459725,1516.185714940686,1259.4780825062364,1587.0586195302624,1344.1565014843493,1473.6351526281405,1329.0442513500545,25.983384948053146,5.799033233540486,2.1662890621847004,0.12799768131445902
8,0.09,-5.8299116261753685,3.3806241905532253,0.47691777522656303,0.9672791705185136,0.23173505930890315,0.10326624675004203,0.002439436466695744,0.1028621782875733,-0.22932029063120488,0.26137213955430055,6.721152688148874,2.62554024028267,0.3327112751169573,4.521048330508578,-10.059756467816955,10.006643059779552,0.0,0.0,0.0,0.0,0.0,0.0,0.0,0.0,0.0,0.0,0.0,0.0,0.0,0.0,0.0,1761.7008582072647,1550.8428663406307,1600.944457281058,1581.5459058266777,1785.4793375304225,1558.8979665711538,1629.8522408066278,1573.2395662480135,26.914461972963025,4.982472314528894,1.9424028240802562,0.2331285309920469
9,0.09999999999999999,-5.828630924562328,3.37776625712847,0.48008352419315503,0.9579230786414501,0.2629761027822759,0.11495134285229669,0.003624023728667483,0.15493200765531148,-0.34628646349797076,0.37353178101968704,6.261384063305812,2.405305318472713,0.34285489950484427,5.5835606056223455,-12.625106516458818,11.392589812782239,0.0,0.0,0.0,0.0,0.0,0.0,0.0,0.0,0.0,0.0,0.0,0.0,0.0,0.0,0.0,1792.2379018826234,1694.3846600473964,1709.7527710166894,1681.2381850240045,1789.6234545095926,1706.7980187319931,1707.4773106661407,1693.889167196879,27.81024761212547,3.944501935527973,1.5666125312906505,0.339782897509201
10,0.10999999999999999,-5.8267870397277,3.373633952430726,0.48439202267564113,0.9483193668231731,0.2914311449675842,0.1254369241702081,0.004883063146898771,0.21492476819860845,-0.4828983422694705,0.4875934192656498,5.6386810527517435,2.1724444969855643,0.3593488098637527,6.258838977292763,-14.321505895353138,11.147147398052281,0.0,0.0,0.0,0.0,0.0,0.0,0.0,0.0,0.0,0.0,0.0,0.0,0.0,0.0,0.0,1825.1046525296551,1706.9200367598978,1771.5540813964044,1707.2858503492196,1805.6050811212492,1731.999138025238,1758.9843036360348,1724.2496841860384,28.87750000631646,2.7301941257566535,1.0932206630392294,0.4286622856781325
11,0.11999999999999998,-5.8243112242688,3.368055217963808,0.48982405206007745,0.9390870474883067,0.31621031434113855,0.13448779795633556,0.006291783914670599,0.2811956440462442,-0.6352423130773878,0.59809523681357,4.819726925179438,1.8657382533585276,0.3813157377718716,6.8536121379687565,-15.80506430020423,10.772969728823355,0.0,0.0,0.0,0.0,0.0,0.0,0.0,0.0,0.0,0.0,0.0,0.0,0.0,0.0,0.0,1862.2509412241095,1706.7819316864372,1822.08335183875,1733.9540081814807,1835.3652479216832,1740.8885184071119,1806.7836175843806,1753.1819115211083,29.681806671461793,2.063878011865619,0.8147546877754356,0.41549917050896407
12,0.12999999999999998,-5.821142985127683,3.3608794689877093,0.49634596888061994,0.9309233993496291,0.33649764264064613,0.1417358838080059,0.007867673212738133,0.35335952050784747,-0.8021387663290124,0.7058638834521737,3.812488744797323,1.4746100274512164,0.4053370556539323,7.421664336233091,-17.1986470773684,10.57205193462074,0.0,0.0,0.0,0.0,0.0,0.0,0.0,0.0,0.0,0.0,0.0,0.0,0.0,0.0,0.0,1905.7554314883346,1713.8647637375632,1871.7839039390828,1765.3899752522811,1873.5452281192963,1755.9051142782923,1854.4025908054032,1787.1768575789288,29.555564527182195,1.0706159393480927,0.3152202816257561,0.42220691093431745
13,0.13999999999999999,-5.817227282650983,3.3519715107500767,0.5039336896618898,0.9241516755255784,0.3523979390206471,0.14719877856701083,0.009586072482846932,0.43046642363627996,-0.981130037844325,0.8111457956706919,2.984226966464572,1.147375637623956,0.4202562395522184,7.863083465384168,-18.275271841574515,10.317741475809438,0.0,0.0,0.0,0.0,0.0,0.0,0.0,0.0,0.0,0.0,0.0,0.0,0.0,0.0,0.0,1924.0906381186805,1755.2400063208902,1886.827674669075,1796.515472981061,1899.680383966053,1786.4398396571044,1874.6747442452722,1811.0789161810715,28.739602763056165,-0.09973062861257298,-0.2843930657227536,0.4134071843140068
14,0.15,-5.812527450560511,3.3412408773574565,0.5125445278339769,0.9189683719081015,0.36418008403635793,0.15080348966757492,0.011327194177119162,0.5096810409740505,-1.1655135463874207,0.9098461957258853,2.064046036563958,0.7253677575909043,0.42800644496836693,7.966766908570677,-18.57140599679452,9.572099040099035,0.0,0.0,0.0,0.0,0.0,0.0,0.0,0.0,0.0,0.0,0.0,0.0,0.0,0.0,0.0,1927.2235719968264,1746.4853119444142,1884.1960467222386,1793.170325984827,1897.2261112234964,1781.3022965279642,1869.4125823197023,1808.1860356759855,28.04431314189839,-0.7915790152088487,-0.4916757352608393,0.4179841471821046
15,0.16,-5.807038305608097,3.3286697205253097,0.5220947509132398,0.9158127807731911,0.37143617874548923,0.15216377108720605,0.012973143795731407,0.5878709349832749,-1.3482340525203103,0.9987418389211922,1.0232278930998844,0.21251588235201752,0.4302089832255689,7.764188514514547,-18.191918673476692,8.576993443270453,0.0,0.0,0.0,0.0,0.0,0.0,0.0,0.0,0.0,0.0,0.0,0.0,0.0,0.0,0.0,1917.3906803718883,1707.3615020167701,1863.14008733885,1762.308358877669,1880.8489765716295,1748.421313949062,1845.5401183833544,1778.324483518882,26.682129820555087,-1.3642828070319175,-0.6175885618975057,0.4241363061162017
16,0.17,-5.800778140773757,3.314291364892631,0.5324919248733436,0.9147009823246506,0.37436563298795333,0.15152742855220855,0.014557615471069542,0.6637657228723416,-1.5267042449648722,1.079666560686918,0.1636956224231947,-0.13424596692962415,0.4289861134780335,7.502237108252818,-17.69563596369972,7.883303939929975,0.0,0.0,0.0,0.0,0.0,0.0,0.0,0.0,0.0,0.0,0.0,0.0,0.0,0.0,0.0,1882.6571392020774,1700.1916939379291,1838.016184046407,1744.1778334099406,1854.2516589583388,1729.9345357175432,1823.466469770563,1757.4481395658413,24.37484732689353,-1.840116323753156,-0.5610237563126724,0.42966603709614887
17,0.18000000000000002,-5.793778564834905,3.2981685743899853,0.5436548262582725,0.9152812082913399,0.37369323228664647,0.14950413753340164,0.016192305342263128,0.7354044603427334,-1.6962614317149156,1.1515487982746757,-0.5614252911965392,-0.37239558943488027,0.42843685000995674,7.0072636205794625,-16.62907077558473,6.938279849192375,0.0,0.0,0.0,0.0,0.0,0.0,0.0,0.0,0.0,0.0,0.0,0.0,0.0,0.0,0.0,1823.6185763937317,1673.6678302078121,1792.5090326784039,1705.302196711504,1800.1817700520812,1694.997518953758,1777.6789164578565,1716.6448953849579,25.124906501599902,-2.170814064490192,-0.5052289745552014,0.4326892897325881
18,0.19000000000000003,-5.786095511846579,3.2804239731350777,0.5554733982727119,0.9172007457482089,0.3699937626699224,0.1467050115113101,0.01802906491610984,0.8000659118848233,-1.850012646572462,1.210090971295559,-1.1684225362363225,-0.46096207395889477,0.4293661993110644,6.2376899345394365,-14.844199429162375,5.488130019658755,0.0,0.0,0.0,0.0,0.0,0.0,0.0,0.0,0.0,0.0,0.0,0.0,0.0,0.0,0.0,1732.7054664482876,1613.6370382245386,1717.7646247456196,1629.7604094082978,1712.7198001941038,1627.3291432275107,1700.6634693087374,1640.1399367235338,27.289783385073903,-2.3427952159742538,-0.41396389859742433,0.43246274512956695
19,0.20000000000000004,-5.777780781995454,3.2611766738887566,0.5678628277973881,0.9201089655719711,0.36382656238950956,0.14360701218522018,0.020168044653455165,0.8629162957763423,-1.9994662549925808,1.2686913489690121,-1.6421324050764758,-0.4810428938046357,0.43152503844867546,6.273811133869045,-14.894881105587343,6.055391545296329,0.0,0.0,0.0,0.0,0.0,0.0,0.0,0.0,0.0,0.0,0.0,0.0,0.0,0.0,0.0,1737.0905338741627,1651.4082747996904,1733.331382057812,1656.1670311393696,1726.7393116060318,1664.6340723140843,1722.6511772271203,1669.5199317070292,27.117783136304876,-2.3924468856186403,-0.24674272659519758,0.42876812592266195
20,0.21000000000000005,-5.768823744660302,3.2404055161636487,0.5808984947477497,0.923662741351972,0.3558025996599261,0.14049906895210115,0.02261994555677006,0.9291215557938337,-2.1560384312043626,1.340978988183887,-1.9710647756278896,-0.44623161209628764,0.43397925051914416,6.719810653956881,-15.826252308761557,7.739271714031437,0.0,0.0,0.0,0.0,0.0,0.0,0.0,0.0,0.0,0.0,0.0,0.0,0.0,0.0,0.0,1790.3851552271574,1737.6870194051496,1793.2973869306936,1734.3509108761177,1787.7257131191016,1747.7194580999246,1788.274291569707,1746.591817193937,26.960561478731687,-2.3502107493574913,-0.04995995976559228,0.42511963131810243
21,0.22000000000000006,-5.759199153028365,3.218063831295779,0.5946997849766653,0.9275304601277463,0.3465380148729713,0.13767382147722765,0.025388356838675602,0.9955803011007707,-2.3114002881764093,1.4196746522019748,-2.1671728276984923,-0.34419732591990126,0.4356255292818095,6.591089762688629,-15.29610075170762,7.98260658956651,0.0,0.0,0.0,0.0,0.0,0.0,0.0,0.0,0.0,0.0,0.0,0.0,0.0,0.0,0.0,1774.8087383082407,1750.8748739758576,1783.8521052416693,1738.8771797912514,1773.3750607836896,1752.2748866601555,1777.483556437923,1745.1196035189719,27.36560193964375,-2.2268696765203795,0.15145306377901024,0.42065852766433537
22,0.23000000000000007,-5.748916883685064,3.194197958906054,0.6092978108292468,0.9314328994243418,0.3365833867969264,0.13540208578669596,0.02847196457722342,1.0606700210241924,-2.460748366634341,1.500236182819092,-2.2503585982993037,-0.19539176874363764,0.4358961824184227,6.4612941839514715,-14.66863599258561,8.151786637091485,0.0,0.0,0.0,0.0,0.0,0.0,0.0,0.0,0.0,0.0,0.0,0.0,0.0,0.0,0.0,1758.1419112776869,1758.6469233925395,1772.2989809129692,1739.6796688763168,1760.3668371501708,1756.01335401156,1767.565657428763,1743.973869855149,27.729323562183737,-2.053745586922438,0.3645955384721638,0.41497271270344016
23,0.24000000000000007,-5.737985438502897,3.168860900259134,0.6247209176525653,0.9351569988326381,0.32641588401952254,0.13386571619581453,0.03184380978256836,1.1256826229465744,-2.6060866806533327,1.5852413899343583,-2.235596696783778,-0.02117774292294131,0.4345531983155353,6.508244931551221,-14.349039285698861,8.69605731360723,0.0,0.0,0.0,0.0,0.0,0.0,0.0,0.0,0.0,0.0,0.0,0.0,0.0,0.0,0.0,1760.9889258663463,1781.0346938790055,1778.0124458001649,1757.8387609285776,1767.0475003971214,1776.3209806531206,1776.1109918859454,1761.072614961591,27.93443303732045,-1.8085712726618424,0.5747340011322507,0.4096294219117123
24,0.25000000000000006,-5.726400855434513,3.1420869061390997,0.641020868341936,0.9385492760438158,0.3164303438329398,0.13318870821463977,0.035466349452861354,1.1913571841261916,-2.7481066122345887,1.6755531016146146,-2.146253260954627,0.1723814476250365,0.43151198600850416,6.591270002627603,-14.012095432061944,9.212490619804559,0.0,0.0,0.0,0.0,0.0,0.0,0.0,0.0,0.0,0.0,0.0,0.0,0.0,0.0,0.0,1765.6927864269032,1800.3558997739594,1784.4056533267342,1774.3192901840057,1773.799748428596,1793.5658314959323,1783.944521255923,1776.121128115255,28.08181606020327,-1.516955712250472,0.7734484485159402,0.4054568123319326
25,0.26000000000000006,-5.714155758402015,3.1139121632474627,0.6582458436118641,0.9414951853203141,0.3069738090057706,0.13345359609199217,0.03929420177674948,1.2577969489100558,-2.8861214658099312,1.7700173208771053,-1.9825153583581305,0.3739075099983016,0.42704496061050745,6.676027610434954,-13.593233908951508,9.578790852265318,0.0,0.0,0.0,0.0,0.0,0.0,0.0,0.0,0.0,0.0,0.0,0.0,0.0,0.0,0.0,1766.2309026279936,1813.5599135443708,1785.8424737236628,1786.2666266077342,1776.0911098027314,1804.5751458011157,1786.939969961082,1786.0864786164918,28.210871599400583,-1.2029637601305132,0.963970169795846,0.4017072180815041
26,0.2700000000000001,-5.701241686336033,3.0843789039337466,0.676431488711662,0.9439088146127979,0.2983636060191604,0.13469538010423093,0.043271964111683665,1.325200906249021,-3.0198024271111894,1.867536948966331,-1.7584016965113995,0.5737345072896023,0.4216937384670393,6.787597279553026,-13.163431836850759,9.848896134480256,0.0,0.0,0.0,0.0,0.0,0.0,0.0,0.0,0.0,0.0,0.0,0.0,0.0,0.0,0.0,1765.9995485812703,1823.0512605467607,1785.82997210374,1796.077350333121,1777.1548302198282,1812.622412847745,1788.426055370305,1794.2704080645203,28.2975123630694,-0.8858992987877912,1.1303950421861646,0.39522680399177174
27,0.2800000000000001,-5.687647313624636,3.05353000357142,0.6956043427825012,0.9457384233700836,0.2908440887689512,0.1369186502356359,0.04734800742669987,1.393922100006466,-3.149298306136862,1.9673438618190295,-1.492236608722093,0.7689329758396032,0.4160025793039748,6.937436077058434,-12.760295128509735,10.047988788636664,0.0,0.0,0.0,0.0,0.0,0.0,0.0,0.0,0.0,0.0,0.0,0.0,0.0,0.0,0.0,1766.67314287949,1830.1493893901509,1786.358627760947,1804.2138603971664,1778.594463511292,1818.9397104428256,1790.0057466455637,1801.3332776390662,28.342098427763272,-0.5897874570991214,1.2870058252268932,0.3866362630441275
28,0.2900000000000001,-5.6733577383164215,3.02140607843167,0.7157831861466479,0.9469649554143553,0.2845734763838018,0.14009168967292684,0.05147453973092129,1.4642941036193913,-3.2748544783521396,2.0685892237733245,-1.2026070856563085,0.9493820129722849,0.4101318439743414,7.117866737657019,-12.38233710333203,10.156348015510908,0.0,0.0,0.0,0.0,0.0,0.0,0.0,0.0,0.0,0.0,0.0,0.0,0.0,0.0,0.0,1768.2335853345614,1834.316058554265,1786.2900924605801,1809.7834943503701,1780.1728719444523,1822.9767607905949,1790.6314842370423,1806.0796183614225,28.37535848156161,-0.2875077882736545,1.4261946846519562,0.37673351062277394
29,0.3000000000000001,-5.658355003070219,2.9880451392744622,0.7369778154871206,0.947596655135979,0.2796145542557085,0.14416445600748767,0.055613755920195185,1.536600802542442,-3.396755687719496,2.170354008802105,-0.9108338268590376,1.1181611962093725,0.4041342786523452,7.325205460999129,-12.034452985793198,10.17277442046316,0.0,0.0,0.0,0.0,0.0,0.0,0.0,0.0,0.0,0.0,0.0,0.0,0.0,0.0,0.0,1770.3219194371063,1835.7755670854744,1786.272486909104,1812.216182888624,1781.7427483273336,1824.7944832331918,1790.6668735771211,1808.3128351974858,28.384218056646326,0.004731449672832122,1.5321526588050074,0.3677504315307325
30,0.3100000000000001,-5.642618243401771,2.953481764015401,0.7591894987924094,0.9476486541984358,0.27598678722792513,0.14908119084324734,0.05973374262726958,1.6111525302638332,-3.5154217747663674,2.2718893520281473,-0.613935103661863,1.2721079795816548,0.3981226993407313,7.564360069445497,-11.73351061785377,10.121272642055867,0.0,0.0,0.0,0.0,0.0,0.0,0.0,0.0,0.0,0.0,0.0,0.0,0.0,0.0,0.0,1772.3296286437885,1836.76901822459,1785.7052675302625,1814.0960004848378,1783.5004936843814,1825.987925182428,1790.488827603272,1809.7631258898416,28.372973287555656,0.2700504921243156,1.6204315773305287,0.36049802993990243
31,0.3200000000000001,-5.626123595012553,2.917746070376177,0.7824123426812138,0.9471381762386263,0.27369816999825836,0.15475330081810704,0.06379657308095682,1.688218055041832,-3.6312925907186164,2.3724654419298443,-0.31967808925304747,1.4016255185137445,0.3924059551478047,7.826876385745196,-11.475241734696606,9.995266181150875,0.0,0.0,0.0,0.0,0.0,0.0,0.0,0.0,0.0,0.0,0.0,0.0,0.0,0.0,0.0,1774.3937101635101,1836.1058915531287,1784.459027363084,1815.2730099401683,1784.8460972272887,1825.9119631338515,1789.6254653433089,1810.4880854648345,28.347205861806746,0.5028742506231278,1.6836099234607205,0.35151496682178024
32,0.3300000000000001,-5.608844852687208,2.8808638335245615,0.8066331615902029,0.9460919563599004,0.2727107954367529,0.16107749432295068,0.06777073841998416,1.768001944273078,-3.744803653791169,2.4713729468251637,-0.03981283260924584,1.510734425522485,0.38736631041816183,8.107441894904976,-11.260080071988199,9.800584222408926,0.0,0.0,0.0,0.0,0.0,0.0,0.0,0.0,0.0,0.0,0.0,0.0,0.0,0.0,0.0,1776.5204596067883,1833.872037015453,1783.5821329308255,1815.0599246159559,1785.9752399992528,1824.5549009398296,1788.6870459983957,1810.247715578656,28.290515842463616,0.6817542015152559,1.7363048891956285,0.34170245959925416
33,0.34000000000000014,-5.590754000800069,2.8428564813509953,0.8318320432976636,0.9445460869042395,0.27293813625492463,0.16794632118560768,0.07163446580939732,1.8506625799610923,-3.8563861471133722,2.5679805652561005,0.21719801166691366,1.596773158583024,0.38290731734120237,8.401473419464178,-11.086833632419246,9.54607736607116,0.0,0.0,0.0,0.0,0.0,0.0,0.0,0.0,0.0,0.0,0.0,0.0,0.0,0.0,0.0,1779.1901581067257,1830.651535073233,1782.6475751228868,1813.4970980538349,1787.431877032425,1822.459603190735,1787.4998980136088,1808.833032548234,28.25426648466436,0.8312467446031933,1.778134367695381,0.330949648907245
34,0.35000000000000014,-5.5718218833199336,2.803741526291717,0.8579827610389466,0.9425479988027662,0.2742359598726527,0.17525932183660498,0.07537956205098943,1.9362595768809883,-3.966372398257429,2.6616353458564137,0.4362222470506791,1.666466267043706,0.3787768383645061,8.697401850585651,-10.941489115386283,9.22588571659988,0.0,0.0,0.0,0.0,0.0,0.0,0.0,0.0,0.0,0.0,0.0,0.0,0.0,0.0,0.0,1781.8659177396933,1825.797460469722,1781.957683640284,1809.5184333392403,1788.5626645805821,1818.987305603229,1785.9647182108706,1805.546662432854,28.216911506820622,0.9542917959524319,1.7866381338862598,0.322232590335147
35,0.36000000000000015,-5.552018649525501,2.7635330301340963,0.8850537091478747,0.940146857859594,0.276436091237652,0.18293348390834416,0.07900831337990039,2.0249083990813137,-4.0751636122898995,2.7519878221078566,0.6222572596547349,1.7223742855202222,0.37470597479409956,9.007725718813475,-10.839140886706566,8.883763790150212,0.0,0.0,0.0,0.0,0.0,0.0,0.0,0.0,0.0,0.0,0.0,0.0,0.0,0.0,0.0,1784.910082003807,1821.9150749491307,1781.820117813763,1805.8860436695713,1790.4780751121043,1816.241937981117,1785.2519648270954,1802.5166534493271,28.181555668434502,1.0390871855325337,1.7852434237775667,0.3160061831549298
36,0.37000000000000016,-5.53131332525609,2.7222411790768795,0.9130104789586435,0.9373911032548377,0.2793914843673983,0.19086545840693317,0.08251481557133605,2.116681898794066,-4.183088491387406,2.83874973702328,0.7783023796367218,1.75401207536838,0.37072176401254525,9.321016864336507,-10.76434900520784,8.511595698891927,0.0,0.0,0.0,0.0,0.0,0.0,0.0,0.0,0.0,0.0,0.0,0.0,0.0,0.0,0.0,1787.856723401937,1817.7136218432702,1781.2266532791127,1803.0734674393102,1792.1344339393506,1813.2577105705443,1784.4307917860042,1799.9405043638772,28.14925217240373,1.0985391822021155,1.769653935644277,0.3077035861928647
37,0.38000000000000017,-5.509674606403929,2.679873350907451,0.9418158184220864,0.9343329096747116,0.28295400324376857,0.1989495349774861,0.08589603296634182,2.2115842431775428,-4.290394829680977,2.921664229426853,0.9000925966986605,1.7694490551512418,0.3669970325741066,9.632790643559375,-10.711625833542016,8.116907497788706,0.0,0.0,0.0,0.0,0.0,0.0,0.0,0.0,0.0,0.0,0.0,0.0,0.0,0.0,0.0,1790.6520025878565,1813.274675166865,1781.365061448212,1800.1455988900727,1793.6293259189722,1810.0727405379973,1784.0247446292422,1797.5598241424093,28.100709159893142,1.1094061064235874,1.7467099727979531,0.29824994618002165
38,0.3900000000000002,-5.4870713475749,2.636434741869835,0.971430263684734,0.9310242283437921,0.2869772293249711,0.20709713455741965,0.08915566691980671,2.309580804418444,-4.397270972028462,3.0005444306711517,0.99231121294914,1.7693784722788435,0.36321881400421036,9.939439205628453,-10.675198786849194,7.70637147540576,0.0,0.0,0.0,0.0,0.0,0.0,0.0,0.0,0.0,0.0,0.0,0.0,0.0,0.0,0.0,1793.3810672832733,1809.487359095429,1781.2879835808792,1797.194217632505,1795.3000364000848,1807.34322992291,1783.502700924895,1795.0393073376458,28.098991451508336,1.0855254633673923,1.722301790003044,0.28674777468725754
39,0.4000000000000002,-5.46347316142906,2.5919292138250096,1.0018124005625697,0.9275226198189855,0.2913021255628823,0.21523175758076352,0.09230466887090798,2.4105433246509542,-4.503780836783998,3.0751671287026476,1.0452492834526683,1.75801252768516,0.35898990115846136,10.229626462642027,-10.639648713283378,7.272884815157088,0.0,0.0,0.0,0.0,0.0,0.0,0.0,0.0,0.0,0.0,0.0,0.0,0.0,0.0,0.0,1796.0651334827558,1804.9467069183331,1781.3924233057567,1792.8926633506521,1796.633219236695,1804.071725988418,1782.7312825388908,1791.5663653103081,28.10753794364741,1.0418624066107416,1.6697348989681986,0.2772307872459798
40,0.4100000000000002,-5.4388505015798465,2.5463596811709475,1.0329198883681916,0.9238904215308561,0.29575416998487575,0.2232969637433728,0.09536469956480316,2.514485148054404,-4.610105481374837,3.1456531180443523,1.0616529110136124,1.740323585665298,0.35389993025555716,10.527733932882644,-10.627099455321698,6.865953973323347,0.0,0.0,0.0,0.0,0.0,0.0,0.0,0.0,0.0,0.0,0.0,0.0,0.0,0.0,0.0,1799.9726740086637,1802.229581475354,1783.000812731983,1789.6029229544395,1799.5164077871013,1802.4856132418652,1783.578332473775,1789.2049911778277,28.097700853707046,0.9504184493362978,1.6335100922044448,0.2719268475988341
41,0.4200000000000002,-5.413173591849769,2.499727407580337,1.0647121208299914,0.9201914188652487,0.30018819503628114,0.2312199695597729,0.09834696682866181,2.6213786576407236,-4.716330918484538,3.21212951931301,1.049754685543323,1.7045147940728682,0.3479892978883947,10.818032693963975,-10.61672853436324,6.467954575581469,0.0,0.0,0.0,0.0,0.0,0.0,0.0,0.0,0.0,0.0,0.0,0.0,0.0,0.0,0.0,1803.8012943711726,1799.758736917857,1784.3080075216662,1787.9416991840696,1802.286883865984,1801.0512132945169,1784.6413191417741,1787.8943237265842,28.090020376185265,0.8658766139021051,1.5957317290248778,0.2641074115653845
42,0.4300000000000002,-5.386413759312221,2.4520337855015413,1.0971489610514047,0.916489973581322,0.30445403619197914,0.23895014481636936,0.10127534973307592,2.7310326800967757,-4.822346948172314,3.2745688902929317,0.9994251033697624,1.6693166672062376,0.34171171469500705,11.085108526600163,-10.588778554450506,6.0646001802791005,0.0,0.0,0.0,0.0,0.0,0.0,0.0,0.0,0.0,0.0,0.0,0.0,0.0,0.0,0.0,1806.5048216352766,1796.326382916561,1786.7198163232429,1785.094345834457,1803.883091661758,1798.6221204269696,1786.005927549007,1786.106333877417,28.072294470602763,0.7638951144059293,1.5499691239129676,0.2539279366416816
43,0.4400000000000002,-5.358544308008601,2.403281635257258,1.130190262051034,0.9128349897432116,0.30843245822349774,0.2464718901130873,0.10417920905249393,2.843278108315326,-4.928014585936349,3.3330426023849014,0.9338072415134917,1.6327271660000653,0.3349398859071644,11.337638515963366,-10.547819586957274,5.673729329267463,0.0,0.0,0.0,0.0,0.0,0.0,0.0,0.0,0.0,0.0,0.0,0.0,0.0,0.0,0.0,1807.9468603368125,1794.6272471501961,1787.8111606768427,1783.256506649105,1805.0804716079454,1797.1693072738442,1786.8236493697289,1784.5557519931206,28.11134803446735,0.6231669375642794,1.5185031945105385,0.24022434529313205
44,0.45000000000000023,-5.329540210450514,2.353475287731935,1.1637968371759397,0.9092648680306409,0.31205217562413035,0.25376411306417007,0.10707293950491603,2.957929287764341,-5.033153217584238,3.38763986283319,0.8507058006833976,1.5912809423531689,0.32733810065264995,11.569980344956488,-10.48643790812065,5.291471531015723,0.0,0.0,0.0,0.0,0.0,0.0,0.0,0.0,0.0,0.0,0.0,0.0,0.0,0.0,0.0,1809.2112131093252,1792.8475284118565,1788.0921421905791,1781.2598077628895,1805.813055847245,1795.8784376694596,1786.7935923915238,1782.8687203581158,28.15843250139995,0.46848738194824235,1.471164443573297,0.22880725483058578
45,0.46000000000000024,-5.299377465981352,2.3026201770888473,1.1979316429265658,0.9058241650835223,0.31521183933641445,0.26082074760548685,0.10998461670347041,3.0750254382613202,-5.1377755145854005,3.4387727032630333,0.7396541027924902,1.5552709198781964,0.3184747317671816,11.815994707939481,-10.433359078882098,4.963487325404969,0.0,0.0,0.0,0.0,0.0,0.0,0.0,0.0,0.0,0.0,0.0,0.0,0.0,0.0,0.0,1812.7557755129276,1792.6952703595794,1790.9063091766163,1779.6373049484735,1808.7374932560597,1796.4982975429646,1788.796162333208,1782.2878926554695,28.163983140274485,0.27221301125156033,1.4571007689373707,0.22140505210279884
46,0.47000000000000025,-5.268031531513883,2.2507217543722953,1.232561984843784,0.9025630824416465,0.3178053187845735,0.2676262567968936,0.11294179137304448,3.1945535312571134,-5.241785864767337,3.4867943553968765,0.6081809378824375,1.512957575311194,0.3085280585187962,12.054679738395802,-10.363339109377812,4.664603470986517,0.0,0.0,0.0,0.0,0.0,0.0,0.0,0.0,0.0,0.0,0.0,0.0,0.0,0.0,0.0,1816.286980890158,1792.5090292026389,1793.7317385491558,1779.3592059902874,1811.6357394080253,1796.9164477811742,1791.288659611269,1782.4692475944591,28.16490461587738,0.11933284215732567,1.4499720476294138,0.21078827798483565
47,0.48000000000000026,-5.235479248691976,2.197787784623613,1.2676573407515477,0.8995262292876759,0.3197147842507669,0.27419252531286364,0.11598913146297699,3.3162443622742432,-5.344811703962046,3.531783665476019,0.4453123072545316,1.4857541478708833,0.2980722147010154,12.260065689372546,-10.247202291363777,4.367041837627372,0.0,0.0,0.0,0.0,0.0,0.0,0.0,0.0,0.0,0.0,0.0,0.0,0.0,0.0,0.0,1817.9489814834142,1790.718774052355,1797.1156077710325,1776.9947917700076,1812.6430737428861,1795.603064439021,1793.4710582207824,1781.2868907219215,28.153859359257986,-0.015836249734251018,1.4308545924557288,0.19783895164674464
48,0.49000000000000027,-5.201700073913951,2.1438300043628673,1.3031881623078723,0.8967250692055633,0.3208835741441729,0.28056667597973395,0.11916468618018389,3.439911009231783,-5.446495551961527,3.5739288528314237,0.28890611899839147,1.4683745948768516,0.2870380976932468,12.452562396105371,-10.099342539306555,4.094145526708282,0.0,0.0,0.0,0.0,0.0,0.0,0.0,0.0,0.0,0.0,0.0,0.0,0.0,0.0,0.0,1817.363562559451,1791.3363098207924,1797.858099994919,1776.4022847129945,1812.6994383153328,1795.5284969122226,1794.3531069660976,1780.534705429592,28.209617008072136,-0.2024697093379397,1.4418938105212247,0.17993211447653285
49,0.5000000000000002,-5.166674961263207,2.0888634726995745,1.3391271038462782,0.8941471200080586,0.32134975918039443,0.28677089432936864,0.1224651551321085,3.5654080110946254,-5.546509230345905,3.6134418344615717,0.14273887635654356,1.4494847889019349,0.2752044529488237,12.62997152402745,-9.919014474783161,3.840982683561922,0.0,0.0,0.0,0.0,0.0,0.0,0.0,0.0,0.0,0.0,0.0,0.0,0.0,0.0,0.0,1816.3099330950856,1792.022137389365,1796.762912538672,1776.5590434626824,1811.9624122295586,1795.82627699637,1793.6871865393355,1780.2349240143592,28.26866815320263,-0.3959493756499385,1.458201902796843,0.16575936265129615
50,0.5100000000000002,-5.130385096390528,2.0329054220753466,1.375450141663637,0.8917938475141575,0.3210858290149233,0.29283760291807065,0.12591172407243692,3.6929062096200083,-5.6447996247501075,3.6508505858682554,-0.024102793713739357,1.4463877419487627,0.2620553637487144,12.83784755886197,-9.742536612776576,3.6534808859385315,0.0,0.0,0.0,0.0,0.0,0.0,0.0,0.0,0.0,0.0,0.0,0.0,0.0,0.0,0.0,1819.0178908395737,1793.716813621947,1799.7220289093727,1775.83078883507,1814.330114524201,1798.046794795649,1795.716686559063,1780.708570056505,28.264630773982837,-0.6135883905265177,1.5208044136172516,0.15644842434866912
51,0.5200000000000002,-5.092809791504222,1.9759737795249646,1.4121385423500774,0.8896759004893516,0.3200114315781566,0.29880950072180007,0.12954674070060043,3.8224967319746646,-5.741179702494579,3.6865663055721023,-0.2031614606228392,1.4527357172499542,0.24788295255236606,13.046848658879728,-9.538052463867963,3.497807076351389,0.0,0.0,0.0,0.0,0.0,0.0,0.0,0.0,0.0,0.0,0.0,0.0,0.0,0.0,0.0,1821.3819442145336,1795.179936009619,1803.2503489137237,1775.916232822806,1816.5582593722922,1799.5748915507834,1798.727962695924,1781.44814784198,28.23974210097503,-0.7809091965157428,1.6040536543549189,0.14393583805843327
52,0.5300000000000002,-5.053929209561738,1.9180900615176033,1.4491757914169614,0.8877863929813361,0.31804296682133715,0.30476369343101584,0.13342819364345918,3.9539094544040854,-5.83511359666554,3.7206148633521847,-0.40089276655762174,1.488225274051136,0.23338657610377117,13.21976034478789,-9.26945419912073,3.3342081425402625,0.0,0.0,0.0,0.0,0.0,0.0,0.0,0.0,0.0,0.0,0.0,0.0,0.0,0.0,0.0,1820.8367227200947,1794.6292166349149,1806.457187979286,1773.616754611764,1815.9910770440595,1798.7775687737694,1800.7646466219662,1780.2546673742877,28.201868890298346,-0.9021726428205139,1.6593523874098044,0.12867379991330305
53,0.5400000000000003,-5.013726198291284,1.8592814561062736,1.4865454889930148,0.8860803263764533,0.3151586280207319,0.31080943103428005,0.13760156965977957,4.086969167580734,-5.926080073379865,3.7530794916484562,-0.5825829530822053,1.547477904401256,0.2184761772010459,13.382820587237276,-8.953311942529574,3.183474310912704,0.0,0.0,0.0,0.0,0.0,0.0,0.0,0.0,0.0,0.0,0.0,0.0,0.0,0.0,0.0,1817.6863386688478,1795.8139198598917,1806.6124697578223,1772.449420889676,1813.9837532419901,1798.713481482054,1800.9758715309301,1778.9501763439985,28.246977344499278,-1.0947064806473497,1.7565535105265393,0.10732116451799983
54,0.5500000000000003,-4.972184568175505,1.7995798337946203,1.524232505730643,0.8844965423890186,0.31145060917139905,0.31699690364976485,0.14204699090476128,4.221629218413094,-6.013652585051336,3.7841018058995353,-0.7349163443063433,1.603394637608736,0.2028558174721962,13.542773993751922,-8.597663401043398,3.0461545759523645,0.0,0.0,0.0,0.0,0.0,0.0,0.0,0.0,0.0,0.0,0.0,0.0,0.0,0.0,0.0,1814.1530056573888,1796.9721792043572,1803.6285607710358,1773.1621184513158,1811.2681731090427,1798.978069170914,1799.0042458230698,1778.569085023527,28.323664362866307,-1.2272390644208433,1.872219649774173,0.08687080812889438
55,0.5600000000000003,-4.929286806143567,1.7390198652205255,1.56222456222195,0.8829997921667306,0.3069219096087008,0.3233694099662787,0.14677374810816782,4.358282513379181,-6.097744633757078,3.814187734886483,-0.908693070681171,1.6812080857625846,0.18577468954817505,13.759651128073536,-8.243421524916528,2.9738475526523978,0.0,0.0,0.0,0.0,0.0,0.0,0.0,0.0,0.0,0.0,0.0,0.0,0.0,0.0,0.0,1816.0117180976968,1798.6968567450208,1806.262101746673,1772.0953010587962,1812.7635912444646,1801.2973755874605,1800.5203830885248,1778.9719380509885,28.327257221249276,-1.3165433229229804,2.067867841402667,0.07268290822879044
56,0.5700000000000003,-4.885010779976308,1.6776369671548437,1.6005148174860884,0.8815412144391149,0.3015544488451335,0.33000792825793007,0.15180503586451707,4.497333053734271,-6.178196640170255,3.8437961311181295,-1.0607175985804904,1.7779941559436327,0.16717985729656615,14.010483963396325,-7.866399438093197,2.9378757254625576,0.0,0.0,0.0,0.0,0.0,0.0,0.0,0.0,0.0,0.0,0.0,0.0,0.0,0.0,0.0,1816.5206880834592,1803.481984776911,1808.4116854251743,1774.2252577437396,1814.461260108674,1804.8881194145135,1803.044108722509,1780.9164653929565,28.279750535770205,-1.475804298315578,2.2698303549699768,0.056817342996291056
57,0.5800000000000003,-4.83933275597333,1.6154699853131083,1.6390983621285111,0.8800011480383002,0.2954261270631997,0.3370841889162233,0.15714844091623623,4.638643268930493,-6.2544565944540995,3.872797151206998,-1.182462239353171,1.9260202474039734,0.14788821951179273,14.23203717100563,-7.422668626185569,2.868387619736179,0.0,0.0,0.0,0.0,0.0,0.0,0.0,0.0,0.0,0.0,0.0,0.0,0.0,0.0,0.0,1811.6606543556072,1807.8214334453496,1809.2867346907135,1774.7690172529128,1811.5047381158015,1806.9989577838298,1803.7261891458036,1781.5569182193267,28.120954562968045,-1.6035838562488323,2.4065528090022013,0.0377774790033831
58,0.5900000000000003,-4.792231231641542,1.5525639436799366,1.6779675417448778,0.878284298100461,0.28851901209385106,0.3447529704427371,0.1628461259639853,4.7820162771768535,-6.3259126690536664,3.9008806386309045,-1.3243443743777616,2.100065065531737,0.1278806833946935,14.438308202127104,-6.918578948057252,2.7689784471323087,0.0,0.0,0.0,0.0,0.0,0.0,0.0,0.0,0.0,0.0,0.0,0.0,0.0,0.0,0.0,1808.8775446366924,1806.9354526386342,1810.930929356138,1770.9967492404276,1808.388491546317,1806.2405791427207,1803.8633318528787,1779.244908233056,27.81714068926497,-1.7963591125215053,2.5728245129989933,0.011294288674370163
59,0.6000000000000003,-4.743687446591774,1.4889705024943667,1.7171107794155813,0.8763659768450456,0.28079585705288673,0.35300020476783417,0.16890001990595194,4.927013667162593,-6.3918118869719125,3.927516868530639,-1.458047784428317,2.2530495013092753,0.10679670663485036,14.587624623795037,-6.334645568791153,2.6073185270711896,0.0,0.0,0.0,0.0,0.0,0.0,0.0,0.0,0.0,0.0,0.0,0.0,0.0,0.0,0.0,1804.0563035177506,1801.6550890761973,1805.6715377499163,1766.8883821335537,1803.114746019721,1801.0252056065942,1799.2198522278018,1774.1399399315824,27.882073775934987,-1.9807632824504986,2.7313512681519514,-0.015792460496787737
60,0.6100000000000003,-4.693689014624123,1.4247494303506743,1.7565098452541992,0.8742371769184375,0.272195465920677,0.3617799155131688,0.17531194927098073,5.072818446853868,-6.4513057524060375,3.95192966353538,-1.6215637760330985,2.4140919653543538,0.0836476538303689,14.64684389235238,-5.6640140487500545,2.3641250107391265,0.0,0.0,0.0,0.0,0.0,0.0,0.0,0.0,0.0,0.0,0.0,0.0,0.0,0.0,0.0,1796.8089695778879,1790.8369154321995,1797.6592771536586,1754.914137845918,1794.6748127319663,1790.8792507866938,1790.0007641901457,1763.0429577167768,28.188482331174185,-2.170752954514934,2.937123669475004,-0.0369597029065999
61,0.6200000000000003,-4.642222208708451,1.3599641811585086,1.7961467880364883,0.8718827662090344,0.262618327634363,0.37106737584291205,0.18210178078005743,5.221074936455528,-6.504748402928088,3.975392660573052,-1.7939250451590347,2.573573885846271,0.058101806859960005,14.965997218322258,-5.070122777881991,2.325048758905268,0.0,0.0,0.0,0.0,0.0,0.0,0.0,0.0,0.0,0.0,0.0,0.0,0.0,0.0,0.0,1799.6126909716245,1791.5785671554784,1799.9504928645235,1755.1376056402273,1797.8106295558384,1792.2694145275354,1792.682525247093,1764.144561939234,28.236082034565932,-2.4072028634483393,3.203098436551514,-0.0565704334257557
62,0.6300000000000003,-4.589251197936735,1.2946730193634826,1.8360206122558944,0.8692473465909819,0.2519984731255219,0.38088944503774663,0.18928563243358085,5.373958171348312,-6.552497122074026,3.9995121224337593,-1.974534002824668,2.7575779189950906,0.03076567533192034,15.486972871435967,-4.492892608206844,2.42832658699621,0.0,0.0,0.0,0.0,0.0,0.0,0.0,0.0,0.0,0.0,0.0,0.0,0.0,0.0,0.0,1808.0955027348127,1800.6639633937502,1811.4966235627626,1763.5296288607465,1806.9951785067701,1801.2871697070075,1804.0559066329222,1773.731326750126,28.161153038220824,-2.62064539946323,3.417560179074856,-0.07913500294639116
63,0.6400000000000003,-4.534729918650453,1.2289366668956458,1.8761367724750748,0.8662369879153042,0.24020909115852604,0.39134932834579117,0.1969232756570794,5.530907722845308,-6.5935659168482825,4.0236519881373285,-2.1825142122900387,2.983805289894272,0.0017761226502401588,15.855438376869202,-3.774221907255182,2.3909825288779274,0.0,0.0,0.0,0.0,0.0,0.0,0.0,0.0,0.0,0.0,0.0,0.0,0.0,0.0,0.0,1808.907502253059,1801.7747805985136,1818.166545126639,1762.334356062387,1807.50087551714,1801.8270712109686,1808.6977228446224,1774.0859776112975,28.182584238937498,-2.72740146779567,3.5655156871953593,-0.10499635698016888
64,0.6500000000000004,-4.478623205251908,1.1628279009603215,1.9164901954983709,0.8627758842668465,0.22715655422553716,0.40246381834348127,0.20503791923526563,5.690928395155563,-6.626815590666585,4.046845093362724,-2.3917062574180132,3.2018524615382415,-0.029176685263662724,16.14263661743287,-2.952316430648416,2.272936955709959,0.0,0.0,0.0,0.0,0.0,0.0,0.0,0.0,0.0,0.0,0.0,0.0,0.0,0.0,0.0,1806.165128341215,1798.507976419117,1817.6490933388336,1760.173150208647,1804.4593146100124,1798.3523682348568,1808.2587205425025,1771.481365294909,28.264944090507434,-2.801625686024246,3.6525797545878698,-0.13357959351286816
65,0.6600000000000004,-4.420899760301667,1.0964284186158824,1.9570708882835122,0.8588119513519267,0.21295648062573183,0.4141233134647677,0.21352622981629193,5.854365255890766,-6.6516295746892125,4.069155381712953,-2.549480315962291,3.3832976743276038,-0.0620746223238893,16.50554313157837,-2.0852625218275023,2.1914265625380125,0.0,0.0,0.0,0.0,0.0,0.0,0.0,0.0,0.0,0.0,0.0,0.0,0.0,0.0,0.0,1804.4269707010221,1799.9410595355198,1814.1996871460385,1766.378667208648,1803.6754842992598,1799.025539886246,1807.607755862329,1775.027393135521,28.13212871270155,-2.8720133023347625,3.7401818680723733,-0.15915089915673974
66,0.6700000000000004,-4.3615222688695425,1.0298249848720031,1.9978712959063976,0.8543231704951559,0.1978352665848936,0.4261565473376486,0.2222244919257176,6.021809836525038,-6.667524582534711,4.090806487003859,-2.6677445186761948,3.5168806741675525,-0.0965565259291513,16.919036237333707,-1.1707141083041606,2.125988969044812,0.0,0.0,0.0,0.0,0.0,0.0,0.0,0.0,0.0,0.0,0.0,0.0,0.0,0.0,0.0,1805.748168539328,1802.4778830780162,1811.639644124011,1775.3694868841096,1805.0293799133738,1801.666649277641,1807.3587638378199,1781.8384748561753,28.453654939640494,-2.945184753097571,3.8746104878016596,-0.18197691652129822
67,0.6800000000000004,-4.3004544942083065,0.9631101671050777,2.038881299307671,0.8493016783196792,0.18195407913572537,0.43842070002872097,0.23101225524974345,6.192166742748442,-6.673789492215067,4.110875033801836,-2.7635562548770474,3.6287568487558697,-0.13179050730936828,17.161103680292555,-0.18077292474139028,1.927664997817935,0.0,0.0,0.0,0.0,0.0,0.0,0.0,0.0,0.0,0.0,0.0,0.0,0.0,0.0,0.0,1800.6777478785411,1797.7628635478727,1805.2224874562162,1776.0349237436767,1799.5376617682166,1796.6452664072895,1801.5641172638643,1781.2618494333524,29.280064455614784,-2.963367312271178,3.9375707273117366,-0.2071704576297756
68,0.6900000000000004,-4.237661320594301,0.8963817502575886,2.0800881949931282,0.8436986489376975,0.1653817021594833,0.4508892261399783,0.23983408457187166,6.367380952962551,-6.670218712253844,4.130471710731384,-2.8485989926065614,3.7538509370076634,-0.16714464734850212,17.73662026582823,0.8164659029867849,1.92863339429028,0.0,0.0,0.0,0.0,0.0,0.0,0.0,0.0,0.0,0.0,0.0,0.0,0.0,0.0,0.0,1807.9078679540858,1806.9294426450724,1815.3026562649782,1787.7441106792537,1807.9663708256655,1805.9509534563065,1812.1153885998594,1793.9051994192007,29.63759109748881,-2.918560500691318,3.975480169663962,-0.23765307020013804
69,0.7000000000000004,-4.173075146643156,0.8297397351789967,2.1214980584166487,0.8374860485841172,0.14822492236508006,0.4635055409721825,0.24861436866141118,6.551359715162212,-6.656406200016835,4.151779665721148,-2.9002937644528766,3.8456628475001176,-0.202406136965308,18.72052289027426,1.8705895260140437,2.150514884246668,0.0,0.0,0.0,0.0,0.0,0.0,0.0,0.0,0.0,0.0,0.0,0.0,0.0,0.0,0.0,1831.126652502039,1831.9259885419692,1838.17625951588,1817.6573575038692,1832.37604068869,1831.4025864232624,1837.3875486559614,1822.8913143209284,29.900593714201197,-2.887709716973532,3.998185171230676,-0.27121919882808543
70,0.7100000000000004,-4.106610333686353,0.7632908809017117,2.163124656227031,0.8306725932923459,0.13068942985860574,0.4761714653580704,0.25722373773613844,6.742550608809908,-6.631449498427978,4.1734026221844065,-2.9049969663159207,3.910682582282771,-0.2376070777426577,19.33361407837708,3.015256973994518,2.0979468450024186,0.0,0.0,0.0,0.0,0.0,0.0,0.0,0.0,0.0,0.0,0.0,0.0,0.0,0.0,0.0,1840.710237193559,1844.9095722063455,1845.6666276335989,1834.9512767892088,1841.9971067948798,1843.066146055201,1846.209395712506,1837.3836371395657,30.13356035671968,-2.877776544549236,4.0152882065663436,-0.30145990042273074
71,0.7200000000000004,-4.038206341452931,0.6971498874038239,2.2049620500818685,0.823280361285662,0.1129396185175926,0.48880661212884174,0.2655601348651086,6.939006087962572,-6.59476501095231,4.19376804110595,-2.8937428887200367,3.954913617409777,-0.27279935208581046,19.819820550360134,4.204325841735468,1.9336597071903938,0.0,0.0,0.0,0.0,0.0,0.0,0.0,0.0,0.0,0.0,0.0,0.0,0.0,0.0,0.0,1848.6569547821957,1853.2450924475843,1851.3689144429366,1846.3146945127698,1849.5706993585413,1851.4594781506394,1852.3766829909016,1847.8794365351978,30.39729650363171,-2.8796556105475033,4.057545952924169,-0.3278904804404857
72,0.7300000000000004,-3.9678150245842216,0.6314359280754168,2.2469933208662125,0.815341857563059,0.09503338783841983,0.5013351546981966,0.2735861348191979,7.139910925509263,-6.545992210100314,4.21206675783666,-2.8833781542878834,3.9860185599053017,-0.30758021000334684,20.239606567977297,5.42532686892816,1.6996039793930606,0.0,0.0,0.0,0.0,0.0,0.0,0.0,0.0,0.0,0.0,0.0,0.0,0.0,0.0,0.0,1856.308145272572,1859.1361155827021,1858.1840999023507,1854.961372216024,1856.6920419847702,1857.7676743777918,1859.1594682506104,1856.4462874318579,30.649856356199717,-2.8297915697248577,4.024994960073872,-0.35295978793218113
73,0.7400000000000004,-3.895393759061538,0.5662715481070677,2.289195189421105,0.8068638147776246,0.07696695216987323,0.5137270992155794,0.28130293316587696,7.344961835293531,-6.484793485244454,4.227817439050412,-2.878594704003737,4.023813432623694,-0.3414981545292009,20.64180638330182,6.681261734985178,1.424570614337206,0.0,0.0,0.0,0.0,0.0,0.0,0.0,0.0,0.0,0.0,0.0,0.0,0.0,0.0,0.0,1864.0678034510674,1865.9259873431708,1867.5537812825728,1863.3175730574787,1864.4574837093453,1864.6535384009933,1868.1653499105312,1865.2319737191942,30.83533426054487,-2.710938195497995,4.009348551123715,-0.38119016280863127
74,0.7500000000000004,-3.820902947760683,0.5017825928013356,2.331539580566922,0.7978877428263074,0.05881070948748043,0.5259106905555486,0.28867697493306504,7.553730218391464,-6.410870987543838,4.240475140802062,-2.8506828225838428,4.024282752583267,-0.3741225969614444,20.98981640365416,7.961201566496712,1.0906350239823226,0.0,0.0,0.0,0.0,0.0,0.0,0.0,0.0,0.0,0.0,0.0,0.0,0.0,0.0,0.0,1871.1882608800445,1872.651607310006,1873.462682618035,1874.564642626531,1871.6203806053704,1871.3739156740423,1875.5308922627519,1874.919265762598,31.07887709297211,-2.638334402702292,4.034699697671566,-0.41085259214386033
75,0.7600000000000005,-3.7443096338233217,0.43809681681295737,2.3739919480386726,0.7884636527867831,0.04074100966679184,0.537846122630962,0.29561256187160506,7.765298277602146,-6.324169153713392,4.249281183785836,-2.778201352876108,4.018076729721973,-0.4053545855471301,21.23242102792222,9.235199383091697,0.6737847277777931,0.0,0.0,0.0,0.0,0.0,0.0,0.0,0.0,0.0,0.0,0.0,0.0,0.0,0.0,0.0,1874.4105939335418,1880.1855595311868,1875.8571005088772,1884.426181562565,1875.9143757847446,1877.7615697357123,1879.3355456951301,1883.0684934663454,31.304262610405182,-2.646940145911281,4.039366323959164,-0.438892075439247
76,0.7700000000000005,-3.665588163833144,0.3753421537010416,2.4165110104999195,0.778587963374328,0.022843400480800042,0.5495822901391214,0.3020567309439214,7.979345001051416,-6.224635411206021,4.253748002570484,-2.707447773254513,4.029057624531095,-0.4354844405851764,21.47032478677513,10.51930452065264,0.21960384079200423,0.0,0.0,0.0,0.0,0.0,0.0,0.0,0.0,0.0,0.0,0.0,0.0,0.0,0.0,0.0,1880.7577686260358,1888.3084481654619,1883.4015904025985,1891.7242863114625,1882.5043308435456,1885.8852789099942,1886.1753022297573,1891.1357038325566,31.588312448178847,-2.684141685219811,4.057313832279281,-0.46336018937492296
77,0.7800000000000005,-3.5847156539094147,0.3136469891242617,2.459050659023851,0.7682647503167755,0.005036880142052335,0.5611048710056125,0.30806691966667293,8.195400676069292,-6.112278214825908,4.25329369292381,-2.6757645931542147,4.0359670884933925,-0.46486656946799326,21.644076774494536,11.798929186349838,-0.2989311928862648,0.0,0.0,0.0,0.0,0.0,0.0,0.0,0.0,0.0,0.0,0.0,0.0,0.0,0.0,0.0,1889.9513951106553,1892.5316021358678,1892.9848286160445,1896.1561868269066,1890.3108849991004,1891.4656254399433,1894.3769042075837,1896.8618504395904,31.785586386794648,-2.631159240021731,4.021778932225617,-0.4849146237505048
78,0.7900000000000005,-3.5016736200410774,0.25314007837066455,2.501559291308651,0.7575011462532849,-0.012811960608881786,0.5723585204880157,0.3137412805403294,8.413223953266389,-5.98694880343858,4.247482555962112,-2.676198105112638,4.04894728991594,-0.4935951498009288,21.807873875765438,13.102777041606117,-0.853095191373221,0.0,0.0,0.0,0.0,0.0,0.0,0.0,0.0,0.0,0.0,0.0,0.0,0.0,0.0,0.0,1900.4153482543013,1898.1761922137605,1904.6612003372193,1902.3178775607505,1900.0959065731422,1897.9617275840535,1905.1975231830295,1904.0386254545992,31.914772637348985,-2.512579883521535,4.011160829222913,-0.5079401176808306
79,0.8000000000000005,-3.4164482861781136,0.1939510087351449,2.5439802151459188,0.7463370580066686,-0.03068045661759663,0.583288600111343,0.3190832405624529,8.631860755166107,-5.848758253608382,4.235626703646553,-2.648251382922504,4.036142693518438,-0.5212364596258732,21.84388789382652,14.377030920531553,-1.4868761564645894,0.0,0.0,0.0,0.0,0.0,0.0,0.0,0.0,0.0,0.0,0.0,0.0,0.0,0.0,0.0,1905.5562761902788,1903.8519202190755,1909.1895220615872,1911.1787336489042,1905.7343153663237,1902.933484594807,1911.23605304576,1911.1030655644981,32.13876123993186,-2.460192883853507,4.083188921793375,-0.5295493967493076
80,0.8100000000000005,-3.3290376440256955,0.13620647669437497,2.5862492662900345,0.7348176631964284,-0.04840433673825263,0.5939105303936663,0.3239912096446204,8.850106384039687,-5.698121836609441,4.21699552346009,-2.576322646767883,4.025756994700279,-0.547477643054445,21.764108252464,15.601355471779321,-2.1916812670941255,0.0,0.0,0.0,0.0,0.0,0.0,0.0,0.0,0.0,0.0,0.0,0.0,0.0,0.0,0.0,1906.4322961094758,1910.1588561583003,1910.309723948214,1918.7614556630833,1907.8868613880054,1907.8591659892138,1913.5659465101535,1917.1834546254595,32.35730670776008,-2.521651820779244,4.10654482286065,-0.5528620948908369
81,0.8200000000000005,-3.239447502734093,0.08003013196159281,2.6282964352233544,0.7228900117152953,-0.06595356544964061,0.6043364942786285,0.32841674721268066,9.06777671881234,-5.535108802892187,4.191193170649087,-2.5159606347305186,4.05890880063672,-0.5724277639050385,21.702170538452137,16.837257271312467,-2.927467914330961,0.0,0.0,0.0,0.0,0.0,0.0,0.0,0.0,0.0,0.0,0.0,0.0,0.0,0.0,0.0,1911.1671304122233,1917.8146043086879,1919.1058867708994,1923.8424270512107,1913.1323251333683,1915.3355919037517,1920.8794452910497,1923.9312261912323,32.655625149751316,-2.630593768106701,4.095056040266528,-0.573876441120288
82,0.8300000000000005,-3.147684853842843,0.025545403262766463,2.6700475626434157,0.7105064951731872,-0.08347705090522997,0.6145566911084394,0.332463796078198,9.284508497274826,-5.359829639470119,4.157691901349668,-2.515399111324783,4.0848691310266965,-0.5969246578301308,21.581315893032027,18.055324944281637,-3.721628574728797,0.0,0.0,0.0,0.0,0.0,0.0,0.0,0.0,0.0,0.0,0.0,0.0,0.0,0.0,0.0,1921.1252377834724,1920.6478559063082,1929.877916891693,1926.3476259030226,1921.1071385938455,1920.1719265343677,1929.7491707434924,1928.29619559502,32.81185843554253,-2.637220354731786,4.068910911169532,-0.5904000645146127
83,0.8400000000000005,-3.053760458740675,-0.027124592006103215,2.71142338670659,0.6976881230793995,-0.10114542424236414,0.6244200910590898,0.336304082565964,9.500100510129572,-5.172115988435813,4.116075389300975,-2.566287780442876,4.091404148115884,-0.6214057284162563,21.45256906132964,19.305868334132725,-4.54921492843674,0.0,0.0,0.0,0.0,0.0,0.0,0.0,0.0,0.0,0.0,0.0,0.0,0.0,0.0,0.0,1934.3003748244003,1924.2921419402574,1942.0459192250032,1932.283635537092,1932.5586470317385,1925.7648886720951,1941.2263612154657,1935.1719993623763,32.90887702587457,-2.5962026022101194,4.024111706220538,-0.6087881057366569
84,0.8500000000000005,-2.9576910424960143,-0.0778570386137104,2.7523399930666996,0.6844846477476241,-0.11896242694481081,0.6338299011424608,0.33998288837962115,9.713237720307996,-4.972450511929768,4.065743235156074,-2.5925354320349516,4.081806141575702,-0.6453458055441427,21.146546122068344,20.472583568923675,-5.444536699106273,0.0,0.0,0.0,0.0,0.0,0.0,0.0,0.0,0.0,0.0,0.0,0.0,0.0,0.0,0.0,1938.560168169277,1928.2016108516104,1945.9262955449312,1939.523517063007,1937.3687987219564,1928.7098167314891,1946.4105756207518,1940.7026167135114,33.14235678702802,-2.5672945781344376,4.094381087163429,-0.6232300872640079
85,0.8600000000000005,-2.8595083697856474,-0.12653607413420875,2.7927075010760194,0.6709700136855076,-0.13678535312293172,0.6427674582647787,0.3434224839781758,9.922568957385025,-4.761544029029083,4.006188976204585,-2.58642256998315,4.054547751748949,-0.6683608689730759,20.723332384607218,21.569822092041946,-6.382538660484549,0.0,0.0,0.0,0.0,0.0,0.0,0.0,0.0,0.0,0.0,0.0,0.0,0.0,0.0,0.0,1939.7283042391064,1931.9558336469033,1946.2194854885583,1946.143374513724,1939.1585367942446,1931.7189878671338,1947.9508907424547,1945.818318967331,33.36639138282098,-2.631059601396098,4.089888824547224,-0.6421393936319909
86,0.8700000000000006,-2.7592520271184724,-0.1730496627594166,2.8324323852563977,0.657100852019386,-0.1545631927768799,0.6513334070893924,0.3465450656456362,10.128005732987264,-4.539310694193603,3.937177357422734,-2.5702625986723264,4.0797302513657545,-0.6901501424734992,20.331428035147425,22.706112138267898,-7.342181107507617,0.0,0.0,0.0,0.0,0.0,0.0,0.0,0.0,0.0,0.0,0.0,0.0,0.0,0.0,0.0,1942.9863054393666,1940.5858655761924,1954.3955586913364,1952.8143628464638,1943.8280413402167,1939.3541381841073,1955.3425245190674,1953.6134311059268,33.67681610129074,-2.817265387965627,3.955109385634448,-0.661604494905193
87,0.8800000000000006,-2.6569622724011857,-0.21728474506347048,2.8714181792238396,0.6428278446861178,-0.17235723687630977,0.6595369455703376,0.3493942793182421,10.329132499654655,-4.305904729648333,3.8582987956125874,-2.5941272018481327,4.086880201260256,-0.7114579628087613,19.868673356423727,23.806396336541802,-8.346650959219826,0.0,0.0,0.0,0.0,0.0,0.0,0.0,0.0,0.0,0.0,0.0,0.0,0.0,0.0,0.0,1951.662538152085,1944.562265742567,1963.489819749621,1957.3701556911371,1950.9531810334054,1944.9378514606228,1963.25986716652,1959.2730740706986,33.79448024280453,-2.9356172576856547,3.836998127227092,-0.6750752199463239
88,0.8900000000000006,-2.5526842622737402,-0.25912970386127654,2.909564390875711,0.6282587282397495,-0.19026779862876525,0.6671118851018036,0.35220855746482677,10.525607490636956,-4.06124797917483,3.7692293051761627,-2.6968808158171655,4.019966907802303,-0.7328906310244462,19.382482925804467,24.934846942090694,-9.372003645478522,0.0,0.0,0.0,0.0,0.0,0.0,0.0,0.0,0.0,0.0,0.0,0.0,0.0,0.0,0.0,1968.5901507235233,1945.0867107043039,1974.778104348786,1964.297318602541,1964.1284540097781,1949.5622363227594,1974.0229380634976,1966.9670618055698,33.85382637808252,-3.1894695091285055,3.515299491709408,-0.6923483108097619
89,0.9000000000000006,-2.446471157932422,-0.29847562330320276,2.946768227191652,0.6135130779218589,-0.20832848806587945,0.67383539200864,0.35517152019213805,10.715822904682812,-3.8063276380607194,3.66981396275638,-2.8036540547310915,3.929877591710241,-0.7540183462981748,18.68439040500469,25.91305409483402,-10.406413261190295,0.0,0.0,0.0,0.0,0.0,0.0,0.0,0.0,0.0,0.0,0.0,0.0,0.0,0.0,0.0,1974.7255809988603,1944.848049019111,1978.5217091520587,1969.4046889152544,1969.69837343152,1949.3202074579535,1978.4070687869194,1970.9275361551715,33.937513780459064,-3.2330707492680544,3.3523377920697346,-0.7012246046780548
90,0.9100000000000006,-2.338393877182552,-0.3352255565800527,2.9829265413368637,0.598812672574976,-0.2265035713448964,0.6794020092498583,0.3585141910146342,10.898238998646955,-3.5421662084106065,3.560188345906389,-2.984095933750601,3.7191066261371324,-0.774618492429976,17.854652672310678,26.812064547411918,-11.406617304053679,0.0,0.0,0.0,0.0,0.0,0.0,0.0,0.0,0.0,0.0,0.0,0.0,0.0,0.0,0.0,1985.2889427230248,1936.8523160062666,1979.9522252071176,1972.3231938478275,1976.0104012617714,1945.7456903731454,1979.9696480838084,1973.4661781595114,33.87575331054033,-3.042982861999494,3.138369788014683,-0.7137036471945166
91,0.9200000000000006,-2.228535093594763,-0.36928888389808945,3.0179396681063,0.5842915061527172,-0.24470194219364827,0.683716142173849,0.3622935719211078,11.072003822975066,-3.2690451216121397,3.440863945103187,-3.092982779030791,3.5395650979301294,-0.7938887161283414,16.956768783465748,27.694094514982392,-12.353542478873436,0.0,0.0,0.0,0.0,0.0,0.0,0.0,0.0,0.0,0.0,0.0,0.0,0.0,0.0,0.0,1983.9412007675016,1941.161022322831,1979.5965259389366,1979.5430598597582,1977.550073623736,1946.9988738233942,1981.65415779529,1978.7014734914753,33.40767965885387,-2.9743383850757295,2.7972794967079673,-0.728455255306323
92,0.9300000000000006,-2.1169873460166997,-0.4005810677705274,3.0517133731124533,0.5700883792676905,-0.26258066143574343,0.687002390079778,0.36616710951227965,11.235823491138232,-2.988203850451513,3.3124026419267874,-3.056510534147232,3.3407146307591478,-0.8108246901943552,15.9195476005074,28.404719109038634,-13.241208281919992,0.0,0.0,0.0,0.0,0.0,0.0,0.0,0.0,0.0,0.0,0.0,0.0,0.0,0.0,0.0,1972.8563614847942,1948.1489904811338,1968.5506366533352,1988.3721943550395,1970.5198619556425,1949.5497778018143,1974.7268377550697,1982.9764925180148,32.776738535651496,-2.8602789953016825,2.5469968891169863,-0.735187235887907
93,0.9400000000000006,-2.003860298902502,-0.42904023409841907,3.0841603257782553,0.5564903765632715,-0.27981718158271346,0.6893033643633306,0.36997523911873964,11.387514616343543,-2.7030558881373796,3.175694352119644,-3.011355158058406,3.0673964587782887,-0.8248811411315567,14.64191895866307,28.708524194081875,-14.019177044596542,0.0,0.0,0.0,0.0,0.0,0.0,0.0,0.0,0.0,0.0,0.0,0.0,0.0,0.0,0.0,1960.179692496469,1934.4015927473565,1950.0033095622366,1980.9033985895205,1955.3546813928178,1937.3710731075216,1956.5746987662794,1973.8412127314605,33.112107173115994,-2.823009780015052,2.1664551327749813,-0.7459335725301679
94,0.9500000000000006,-1.8892825725659061,-0.45463892432348696,3.11520391351951,0.5436488999313019,-0.29629723110446593,0.6906422886015626,0.37372055554720046,11.525858186606076,-2.4164830504404584,3.031922542097946,-2.932218780772562,2.809784835625396,-0.8354717802503735,13.291146359192041,28.76843953212127,-14.67746440208506,0.0,0.0,0.0,0.0,0.0,0.0,0.0,0.0,0.0,0.0,0.0,0.0,0.0,0.0,0.0,1939.6857865843615,1917.2235880615801,1929.5537596339602,1965.8628686156703,1935.4250791582542,1919.1652520353014,1936.3024177257987,1957.9944775084166,33.61539985505623,-2.629333037247,1.994274046025973,-0.7491088750373669
95,0.9600000000000006,-1.773374586393719,-0.47734892959541475,3.1447754314537053,0.5317053698255954,-0.31194884912989984,0.6910012774839146,0.3774845026497853,11.65428000359678,-2.1243453893273134,2.881262478055058,-2.876016187381257,2.4867447577266586,-0.8429505100831255,12.42957564895164,29.496165515304984,-15.357126841663682,0.0,0.0,0.0,0.0,0.0,0.0,0.0,0.0,0.0,0.0,0.0,0.0,0.0,0.0,0.0,1951.5245549544761,1922.8004782113069,1936.296585078323,1975.6426086196593,1946.7131960457075,1928.3375002463915,1944.6282182264745,1968.735746065336,33.861260793582204,-2.284843428421219,1.7934505073879126,-0.7587973810635621
96,0.9700000000000006,-1.6562226458359643,-0.4970970185826072,3.1728069004196997,0.5206747053708715,-0.32673609028214773,0.690525457489397,0.38120331983490346,11.774779185819416,-1.82396607322828,2.723984404119518,-2.750526759082375,2.2462498523900813,-0.8473237002481377,11.66211806713946,30.333815786123484,-15.997086363977342,0.0,0.0,0.0,0.0,0.0,0.0,0.0,0.0,0.0,0.0,0.0,0.0,0.0,0.0,0.0,1959.5756612944438,1943.530614520859,1949.4155724822624,1991.6636610265198,1958.7919112232132,1945.6113954593288,1958.5593154391054,1984.4309453899345,34.06472097256909,-2.048531293401042,1.4725851829651213,-0.7700585606125148
97,0.9800000000000006,-1.5379073184839092,-0.5138067549157197,3.1992357172566934,0.5105772272429355,-0.3405153854947092,0.6895530790821566,0.3845474202105931,11.886833107466858,-1.517111924523412,2.560883197419128,-2.5195446682226836,2.0226498702342552,-0.8493795601514166,10.80191551619869,30.88646560794328,-16.542849363575307,0.0,0.0,0.0,0.0,0.0,0.0,0.0,0.0,0.0,0.0,0.0,0.0,0.0,0.0,0.0,1958.8085664782834,1960.708283223592,1950.7655037280724,2003.7725445390204,1961.399492450976,1958.8862789019654,1961.8507410247282,1993.8944920196288,34.08471721243632,-1.8332968670654464,1.2593967782237623,-0.7692744730490519
98,0.9900000000000007,-1.41851430056429,-0.5274234430360117,3.2240076199944245,0.5016013149279717,-0.3531313053760242,0.6881875648119549,0.3874174462568078,11.990371953558016,-1.2055739275783202,2.392727865060206,-2.291415843462387,1.746243720648742,-0.8496913070838427,9.969464980322584,31.302013412528584,-17.013401235623338,0.0,0.0,0.0,0.0,0.0,0.0,0.0,0.0,0.0,0.0,0.0,0.0,0.0,0.0,0.0,1966.03386235041,1967.5209078375915,1952.8745378790468,2011.4815589387229,1966.7280299118333,1967.550724046679,1964.306152911758,2001.0522588268384,33.95149447971909,-1.7791685208898225,0.9370612922532335,-0.774132312860104
99,1.0000000000000007,-1.2981284483620839,-0.5379100310113492,3.2470768619311694,0.49379049655101004,-0.36460262711034247,0.6864630959016487,0.38987727272215716,12.085402431046601,-0.8914586076394426,2.2205243795468825,-2.0697472926571847,1.5054590136044368,-0.8476214496829189,9.1291644388658,31.480434469793096,-17.376020526325142,0.0,0.0,0.0,0.0,0.0,0.0,0.0,0.0,0.0,0.0,0.0,0.0,0.0,0.0,0.0,1966.5661415544753,1968.8688496460024,1954.7440007985854,2011.209266060117,1967.1007403518229,1968.5470133309905,1964.8515008312077,2001.4590158013777,34.08473358484752,-1.658367073131249,0.8822279651450479,-0.7680806866890778
100,1.0100000000000007,-1.176834753293372,-0.5452520040257087,3.268408343718801,0.48712131967594907,-0.375037622895756,0.6843107787066379,0.3921458395492392,12.171964272960729,-0.5769571710290359,2.0453615552312554,-1.9318489865819521,1.2198968260034355,-0.8439873942794831,8.295287070527735,31.4552359012521,-17.624468765951473,0.0,0.0,0.0,0.0,0.0,0.0,0.0,0.0,0.0,0.0,0.0,0.0,0.0,0.0,0.0,1969.7168176650805,1959.8803978104754,1953.9655309157233,2003.3583929387557,1966.8827562155511,1962.6566372611258,1961.9372179998877,1995.0635155964665,34.03211813034766,-1.417189122725412,0.9019646532671505,-0.7674089810828324
101,1.0200000000000007,-1.0547133602358363,-0.5494447342120657,3.287975809953315,0.4813691516850353,-0.3846463706353774,0.6817986002732064,0.3943115240879448,12.251161190958355,-0.26136701638545196,1.8677546478719598,-1.7988358959815194,1.0579651727597896,-0.8388299108624625,7.605772775551856,31.602692539184908,-17.856248365536008,0.0,0.0,0.0,0.0,0.0,0.0,0.0,0.0,0.0,0.0,0.0,0.0,0.0,0.0,0.0,1970.2653492042127,1966.229021532375,1963.0539633735052,2001.641696250561,1970.3181938882592,1966.774369299366,1969.230290070648,1995.7270948541761,34.119353196811865,-1.2749417054769294,0.8232861610046941,-0.7705063743230114
102,1.0300000000000007,-0.9318352315143175,-0.5504793383268477,3.3057574639619527,0.4762458134827686,-0.3935761547596602,0.6792494287065812,0.39611608039376395,12.323316989109285,0.05437085187577925,1.6883053568345194,-1.6119903856709252,0.9859792173541998,-0.8330233243008119,6.911553756207667,31.555073866894336,-18.01838740283057,0.0,0.0,0.0,0.0,0.0,0.0,0.0,0.0,0.0,0.0,0.0,0.0,0.0,0.0,0.0,1961.2516322299693,1973.544918785307,1963.1270599625989,1998.1241744525814,1965.112087703199,1969.923964206702,1968.7638288848877,1992.1732895682374,34.488800571397796,-1.2110436099773125,0.7995133039008541,-0.7613858857354958
103,1.0400000000000007,-0.8082678954054983,-0.5483566380355303,3.321736015627519,0.47166415625986935,-0.40187782865173693,0.6767999488791103,0.39745309627057157,12.389158682433326,0.37018060433223543,1.5071235666400151,-1.4503382551029578,0.905507049901684,-0.8275587623370368,6.316558493066893,31.572267912109762,-18.190561642732693,0.0,0.0,0.0,0.0,0.0,0.0,0.0,0.0,0.0,0.0,0.0,0.0,0.0,0.0,0.0,1964.0441550267146,1977.1630060186865,1966.4323254721733,1997.8593794212911,1966.882782692408,1974.9140778639908,1971.510025178698,1992.7971877811228,34.591286035869096,-1.2602198605791837,0.6026841342043745,-0.7601706926073462
104,1.0500000000000007,-0.6840684677874522,-0.5430684647629793,3.3358925586416217,0.46751850404633166,-0.4096737459763579,0.6744245027760694,0.39842873928373984,12.449930110243761,0.6877692396365462,1.323830881690194,-1.3362721322075701,0.8550661997499789,-0.8215000688267904,5.850447098913136,31.801971726045487,-18.413681591004536,0.0,0.0,0.0,0.0,0.0,0.0,0.0,0.0,0.0,0.0,0.0,0.0,0.0,0.0,0.0,1976.0246271227911,1985.257564446213,1981.25581014272,2004.1405827624715,1978.07707939659,1984.5120691621214,1984.92801984478,2001.2996228620766,34.81416138397167,-1.2490613127299974,0.6043370600790654,-0.7477541056463114
105,1.0600000000000007,-0.5592862160426098,-0.5345997432853977,3.348206990870227,0.46378665186894574,-0.4170591618819278,0.6719350325435095,0.39933308037187504,12.505660138083199,1.0059341319866373,1.1388324725264307,-1.3016291111977707,0.7259969796622491,-0.8152676556755106,5.337808960376833,31.791941883117847,-18.55386765783362,0.0,0.0,0.0,0.0,0.0,0.0,0.0,0.0,0.0,0.0,0.0,0.0,0.0,0.0,0.0,1987.4854147687447,1981.3054220312506,1986.7157261892705,2004.386705156929,1985.5399992301675,1983.9537336058543,1989.3576583014783,2001.7918176664223,34.70251355448203,-1.1186972643798696,0.780310448998576,-0.74051084631282
106,1.0700000000000007,-0.43397113807735316,-0.5229473791799512,3.358664369874704,0.4603672844293436,-0.42414697763623516,0.6692647691837226,0.4003073488192008,12.556562590790428,1.3246168828096905,0.9524269807181139,-1.275151779278955,0.6695918009165953,-0.808262639754308,4.869291125103814,31.864037738657647,-18.691177994536567,0.0,0.0,0.0,0.0,0.0,0.0,0.0,0.0,0.0,0.0,0.0,0.0,0.0,0.0,0.0,1992.9622701390133,1987.382120165793,1996.623854095579,2007.9977972474326,1992.5621654676247,1988.6944350400138,1998.3991742839873,2006.5956804856994,34.54386316335979,-1.0118186700195437,0.8964469275579678,-0.7390847421612171
107,1.0800000000000007,-0.30817271664780055,-0.5081131983046303,3.367253283625158,0.456990718289675,-0.4310746923963414,0.666685178810375,0.4010797493355464,12.602235383156911,1.6418483458956734,0.7652467128684032,-1.196590290541665,0.7326070086712345,-0.8008763423182728,4.332864834944772,31.632394923711836,-18.75218483827501,0.0,0.0,0.0,0.0,0.0,0.0,0.0,0.0,0.0,0.0,0.0,0.0,0.0,0.0,0.0,1981.9489438216776,1992.7893707192354,1996.2360823264594,2002.9496004503849,1985.6111317206858,1989.2463208728636,1996.6821242717224,2001.9008970323687,34.36408005471477,-0.8851203946307263,0.8452650008747845,-0.7257318660683278
108,1.0900000000000007,-0.1819443038515842,-0.49012041647930493,3.3739673475403094,0.453506999459611,-0.4379050197010971,0.6644150889847016,0.4014015255217314,12.642586843311312,1.9562153017596584,0.577436511642618,-1.1064075213815574,0.817539073986125,-0.7941742521733232,3.809662815001502,31.31973861294224,-18.823000763200426,0.0,0.0,0.0,0.0,0.0,0.0,0.0,0.0,0.0,0.0,0.0,0.0,0.0,0.0,0.0,1974.104885895003,1992.6748714199307,1992.4292210420513,1996.8156521861715,1978.4170924725272,1988.326089552912,1992.3972246431854,1996.0496480406573,34.2284106601404,-0.8169836555830844,0.6027567645409739,-0.7236272476698964
109,1.1000000000000008,-0.055338041366845656,-0.4690007183496417,3.3787994991714796,0.4500480957286721,-0.4445507875400623,0.6624226690369738,0.40128233997328916,12.677858377449166,2.267158637850515,0.3888478415512591,-0.9984351636750405,0.8290761940629966,-0.7869882909573367,3.317127584791635,30.96042263612908,-18.90438929356225,0.0,0.0,0.0,0.0,0.0,0.0,0.0,0.0,0.0,0.0,0.0,0.0,0.0,0.0,0.0,1969.4488721475493,1985.8913257124161,1984.4625950812854,1995.6333144006971,1972.3279578797215,1982.7927289876457,1986.4819573189554,1992.8467365774989,34.525060811993846,-0.8646946174788027,0.5365433349791878,-0.7124360425768418
110,1.1100000000000008,0.07159739461014283,-0.44478895841374805,3.381741509150297,0.4469573869456302,-0.450811327441548,0.6604742042563191,0.4009639220891396,12.708505699964352,2.5746542185203447,0.19942415489539211,-0.9113229309567432,0.7099215737838827,-0.7797064257101758,2.87602004888754,30.619029040402257,-18.97948756165152,0.0,0.0,0.0,0.0,0.0,0.0,0.0,0.0,0.0,0.0,0.0,0.0,0.0,0.0,0.0,1972.6617037464468,1975.6376205464353,1975.1638414364081,1996.0000226673042,1972.0515734081443,1976.2371939248376,1979.3211513841363,1991.1660512042833,34.06705512784574,-0.8149363092364884,0.754766959659837,-0.7051261518784294
111,1.1200000000000008,0.19882066274270074,-0.41750835172556094,3.3827828798850814,0.44427597868866664,-0.45670773815484256,0.6583949997426135,0.40069055514653634,12.735603069781794,2.88147304196325,0.008603741638896687,-0.8906057186184434,0.6252359032879151,-0.7718504969679588,2.555686591547257,30.651738287750252,-19.137283957939374,0.0,0.0,0.0,0.0,0.0,0.0,0.0,0.0,0.0,0.0,0.0,0.0,0.0,0.0,0.0,1984.9473401899984,1978.6904843480354,1987.0146967480973,2000.718266567984,1983.5327938799328,1981.2600441126353,1989.2406521578678,1998.9877398146716,33.2604415126758,-0.6920897617628385,1.014010366323418,-0.7028913036133677
112,1.1300000000000008,0.3262947567849199,-0.3871766494828326,3.3819141340409353,0.441626311595146,-0.4624915960821855,0.6563630640146196,0.40031893866960633,12.758476424562012,3.1839155676792776,-0.1823112195215272,-0.8521056359179284,0.6991729191606989,-0.763835319919325,2.0999719081356005,30.034993735827964,-19.096692876813343,0.0,0.0,0.0,0.0,0.0,0.0,0.0,0.0,0.0,0.0,0.0,0.0,0.0,0.0,0.0,1966.3815311179044,1972.8383292147064,1980.7839498100914,1982.5145979290414,1968.3705546223339,1970.0215090794657,1979.3347538613748,1982.3772124397076,33.305698245269014,-0.5877445244628516,0.9686639636797677,-0.688231690382775
113,1.1400000000000008,0.4539730463615788,-0.3538617265728355,3.379140948737041,0.4386826643311511,-0.4683397516051194,0.6547040795834648,0.39947210823603946,12.776379373048991,3.4775995898672627,-0.3721864499527606,-0.7722322680175432,0.8630564789752775,-0.7565418833688365,1.595528693906445,29.06069876815698,-18.981286536195796,0.0,0.0,0.0,0.0,0.0,0.0,0.0,0.0,0.0,0.0,0.0,0.0,0.0,0.0,0.0,1935.5293421155386,1958.4897738870352,1960.3261346361576,1956.1483661718864,1940.5025343782754,1951.7144839454634,1957.5919267200327,1956.1978627252392,33.67279138996102,-0.5380899059699568,0.8259511658349031,-0.686653630888475
114,1.1500000000000008,0.5818104108288903,-0.3176377577745328,3.374467355457947,0.43557285623116887,-0.4741564184877268,0.6534235347039139,0.39810760105347953,12.790573835354374,3.7667654461778595,-0.5627772872406502,-0.6821630205008287,0.9114847213587615,-0.7488143097171656,1.28083608422358,28.79879372789773,-19.125829682422268,0.0,0.0,0.0,0.0,0.0,0.0,0.0,0.0,0.0,0.0,0.0,0.0,0.0,0.0,0.0,1936.8223934017105,1956.2977309200521,1957.1196875908745,1960.9765000318791,1940.5373632246244,1952.937949852938,1958.1457571167684,1959.682902832562,34.058380853423515,-0.6252051962274834,0.6215290771761525,-0.6777693282609214
115,1.1600000000000008,0.7097764516380426,-0.2785261186301978,3.367877368451839,0.43261984479468507,-0.4797502202622519,0.6522886679052282,0.3964836563725755,12.80225231198611,4.055570741953903,-0.7556172208587828,-0.6127347475055231,0.8642975951945119,-0.7412333070689126,1.0581324750713605,28.842011558086078,-19.377004141620024,0.0,0.0,0.0,0.0,0.0,0.0,0.0,0.0,0.0,0.0,0.0,0.0,0.0,0.0,0.0,1953.7842202154477,1960.988409787998,1962.8510007766358,1974.5046251494682,1954.8005064603299,1961.4194968284519,1965.984428222359,1972.047130932296,33.772803042781675,-0.695328052993905,0.8211730319197167,-0.672539138085998
116,1.1700000000000008,0.8378486611933493,-0.23652345630334864,3.359346395458012,0.42999411725824954,-0.48505897705738016,0.6510121714007849,0.3949759493784172,12.811836840225727,4.3450097491469934,-0.9509474088733102,-0.6205690105718166,0.7391713726510694,-0.7334968325457135,0.854865233138824,28.91350766731371,-19.6155584751736,0.0,0.0,0.0,0.0,0.0,0.0,0.0,0.0,0.0,0.0,0.0,0.0,0.0,0.0,0.0,1973.983955607166,1962.9400234084212,1974.487988004583,1985.324176262663,1971.1885976151818,1967.2854300020315,1976.921139380181,1983.7001588747273,33.27561191510833,-0.5906570518789034,1.2353201907021059,-0.6701539256150782
117,1.1800000000000008,0.9660033323868267,-0.19163974367895464,3.3488565044412466,0.4273794838338284,-0.49031358509657536,0.6496211424733638,0.3936136891919227,12.818579345205125,4.63092513803427,-1.1470900088984828,-0.6557566535999833,0.7894973284512994,-0.7260366031504387,0.5393040644872116,28.402555020690556,-19.641149752549936,0.0,0.0,0.0,0.0,0.0,0.0,0.0,0.0,0.0,0.0,0.0,0.0,0.0,0.0,0.0,1964.0406122115849,1958.620537627042,1974.9045120633784,1969.787847395772,1963.47661074398,1958.8070072692055,1972.3546770027258,1971.2773007767876,33.110769520552445,-0.4555972202481736,1.1335227245034711,-0.6522175745964468
118,1.1900000000000008,1.0942084449716183,-0.14392910694844768,3.3364058356066804,0.42425813424966125,-0.4958128046898407,0.6485366156013603,0.3918864075888876,12.821876659199365,4.910071833866416,-1.3430604210902573,-0.6196140742323836,1.0236769605214207,-0.7193289264142649,0.18737652211697764,27.66354907580304,-19.62550269863894,0.0,0.0,0.0,0.0,0.0,0.0,0.0,0.0,0.0,0.0,0.0,0.0,0.0,0.0,0.0,1937.209348256585,1957.682109285858,1965.6969842835206,1949.7578596217943,1943.1259547068132,1950.8943129778904,1961.0906109996445,1952.680326649935,33.14874124152671,-0.3330790935888679,1.0659040296892033,-0.6484018786459775
119,1.2000000000000008,1.222430734190695,-0.09345597761216319,3.3219923274462344,0.4208263612921361,-0.501396869321631,0.647833761878798,0.38963799871939203,12.822121734400962,5.183802100644389,-1.5398549006096134,-0.5376668390961525,1.070825553668621,-0.7118412808081876,-0.09418730513566231,27.189162934792677,-19.744943724750996,0.0,0.0,0.0,0.0,0.0,0.0,0.0,0.0,0.0,0.0,0.0,0.0,0.0,0.0,0.0,1931.6090010648986,1950.8151677091316,1953.543782397053,1953.4457567329857,1935.3315478583459,1946.8567573409143,1954.2430834896184,1951.983351895832,33.67768335623275,-0.43235625425047736,0.6585948211100546,-0.6427869438094014
120,1.2100000000000009,1.350642922976832,-0.0402639929019018,3.3056027524653877,0.4175156817594753,-0.5067828799215053,0.6473468974165865,0.3870319915827441,12.819955102292054,5.4540899844669175,-1.7383783217246935,-0.4375809576177911,1.0657602977557619,-0.7040462060036834,-0.3124518696040468,26.88823569688026,-19.936550873166148,0.0,0.0,0.0,0.0,0.0,0.0,0.0,0.0,0.0,0.0,0.0,0.0,0.0,0.0,0.0,1935.3131354686484,1949.424534373056,1948.1752181093223,1959.7496701902135,1937.6712714330931,1947.5577359825174,1951.2219940635725,1956.4349048524641,33.36126416354194,-0.6240729962055407,0.7013174502692469,-0.6444505179441554
121,1.2200000000000009,1.4788250727879981,0.015628102576359704,3.2872139192314833,0.4146784339402403,-0.5117900281075037,0.6466991989506953,0.3845684719671121,12.816250336608265,5.724466887710746,-1.9398929930633069,-0.43801152547514133,0.8516711431906384,-0.6962257832974215,-0.43968376085601335,27.01892113060378,-20.2615782013571,0.0,0.0,0.0,0.0,0.0,0.0,0.0,0.0,0.0,0.0,0.0,0.0,0.0,0.0,0.0,1964.8243852402773,1949.836488990459,1959.4497703746736,1977.4263061928277,1960.6004205654435,1956.1281728917809,1963.97118080162,1974.118145885396,32.74591087807764,-0.5684660745826194,1.1628886957686306,-0.6437016957656193
122,1.2300000000000009,1.6069606990282066,0.0742105071499106,3.2668025916024197,0.4121205452236983,-0.5165967614149984,0.6456799236033209,0.3825988480846047,12.810478435295193,5.991130107566006,-2.1424014016621378,-0.5291361183428006,0.7832612732009061,-0.6895155820555048,-0.6808225311818461,26.460217813482956,-20.269528369316614,0.0,0.0,0.0,0.0,0.0,0.0,0.0,0.0,0.0,0.0,0.0,0.0,0.0,0.0,0.0,1961.580353103936,1938.637926710433,1959.7889605541995,1959.3609325316547,1956.5429000104311,1943.3130964440102,1957.993489379599,1959.9819164329608,32.56416995886905,-0.4330737183753964,0.9262963934581142,-0.6185791715944056
123,1.2400000000000009,1.7350249523316836,0.1354228026766937,3.2443696251392216,0.40915432644844896,-0.5216191885855322,0.6447108458173336,0.380597010673212,12.801899901783438,6.250030696756962,-2.34407864625131,-0.5425106046643481,0.9883839622495292,-0.6839604532462119,-0.9755591771369865,25.606358763561765,-20.168082115895825,0.0,0.0,0.0,0.0,0.0,0.0,0.0,0.0,0.0,0.0,0.0,0.0,0.0,0.0,0.0,1929.0771253205205,1936.797337470556,1950.279961679326,1932.5125678274753,1932.822212763396,1931.7389293582992,1944.8696558468826,1935.980520721169,32.651817553948305,-0.2471762656657685,0.9278829585110353,-0.6079093655507992
124,1.2500000000000009,1.8629903457711225,0.19919190637975018,3.219919990134717,0.4059996410627292,-0.52668460456656,0.6439116821675128,0.37834556206952563,12.79080341840119,6.503008623077827,-2.545966039028742,-0.4858327579529041,0.946320574539404,-0.6768099665668528,-1.206257990396864,25.109016013587393,-20.22858675305539,0.0,0.0,0.0,0.0,0.0,0.0,0.0,0.0,0.0,0.0,0.0,0.0,0.0,0.0,0.0,1921.5656706863642,1928.9517379703425,1935.4365819155046,1939.039401587648,1923.2120041488965,1926.8932766061862,1937.2933949153273,1936.4783960628695,33.334333860988636,-0.36513528632105874,0.2350755182352685,-0.6054349237139647
125,1.260000000000001,1.9908347686417318,0.26547318852882745,3.1934456638904916,0.40310657670498806,-0.5314884833129714,0.643239314238975,0.37585670745675964,12.777805791454675,6.752808174940602,-2.7491515744931916,-0.36803614201489854,0.9382010620186138,-0.6682092591224751,-1.3727713611189074,24.851748620768888,-20.382569591574473,0.0,0.0,0.0,0.0,0.0,0.0,0.0,0.0,0.0,0.0,0.0,0.0,0.0,0.0,0.0,1920.4520539743773,1933.7930406774756,1931.770733091482,1947.695379682517,1923.5652962585973,1931.3111867361317,1935.828353259313,1943.5436974579538,32.994178388139744,-0.6334183638306267,-0.2166541509191625,-0.6193739859006961
126,1.270000000000001,2.118543392139571,0.334254071633828,3.1649259780812304,0.4009946194897478,-0.5357457807817505,0.6422603906411238,0.37373970103313314,12.76378243891111,7.003725542861945,-2.955277838189461,-0.371157540063336,0.5681083220881336,-0.6595350402441922,-1.4480199966246943,25.118010102883837,-20.707307402068054,0.0,0.0,0.0,0.0,0.0,0.0,0.0,0.0,0.0,0.0,0.0,0.0,0.0,0.0,0.0,1960.098233361254,1933.4473799560506,1942.9058975202922,1973.4859241933102,1953.1245865085966,1943.3225656750255,1950.6398210903772,1967.5531054225517,32.25587626840642,-0.737537265353182,-0.09545505482603645,-0.6237852506760708
127,1.280000000000001,2.246105017200434,0.405534117011313,3.1343412438256464,0.39989517997556095,-0.5393927051267742,0.6403980487857394,0.3728668580066512,12.748236977558054,7.251467107743805,-3.1614419671207497,-0.5012588153569091,0.17191812587397784,-0.6529955547372055,-1.6346175301276133,24.59021954437901,-20.562539977350358,0.0,0.0,0.0,0.0,0.0,0.0,0.0,0.0,0.0,0.0,0.0,0.0,0.0,0.0,0.0,1968.1011116503835,1912.0103528136738,1935.5376495363994,1959.8575084089414,1955.2398784359768,1925.2026525006538,1939.2848192325212,1954.8582342098325,32.06775916616003,-0.9099439601167909,-0.6891916781870029,-0.5884692661121317
128,1.290000000000001,2.3735001383907948,0.4792551294278234,3.101708759453511,0.39924586335725226,-0.5427928332231314,0.6378142600113785,0.3730571678977178,12.730380867704778,7.491431524138725,-3.3644751410756455,-0.6126617170036168,0.051426161949740395,-0.6485224369677445,-1.8872229705397814,23.7260214977697,-20.18061466607879,0.0,0.0,0.0,0.0,0.0,0.0,0.0,0.0,0.0,0.0,0.0,0.0,0.0,0.0,0.0,1939.2173985303675,1900.9846053873039,1923.3829970433737,1927.7335687039072,1932.9649182069809,1905.5023499763795,1921.7216206935318,1926.9686605554843,32.14419955940023,-0.9061277041859769,-0.8559906124114827,-0.5654245211941298
129,1.300000000000001,2.500705175634155,0.5553458439927973,3.067060270899109,0.39908150066285175,-0.5459210378548902,0.6344561919231765,0.3743921964818011,12.710261338951723,7.726162892162416,-3.5648334516688833,-0.756563943214175,-0.3324501165013501,-0.6406839461893861,-2.109560571877722,23.3532395243925,-19.935571160992538,0.0,0.0,0.0,0.0,0.0,0.0,0.0,0.0,0.0,0.0,0.0,0.0,0.0,0.0,0.0,1937.7174314362755,1883.6720171935847,1914.7707791746848,1928.981513406612,1927.0192913705284,1894.5034533810674,1917.770356730537,1925.3481353807538,32.67129657475105,-1.2059552143861287,-2.090354594566568,-0.5647651970497222
130,1.310000000000001,2.6276983266937792,0.6337742757800419,3.0304185404603152,0.3995840801126167,-0.548633996600173,0.6302918764935762,0.37691570824427295,12.688010584793656,7.959412662413809,-3.763161710845437,-0.8256552486784465,-0.5900159906736919,-0.6295468496692782,-2.3232579987837454,23.289914008074675,-19.730939611467324,0.0,0.0,0.0,0.0,0.0,0.0,0.0,0.0,0.0,0.0,0.0,0.0,0.0,0.0,0.0,1932.5460839310272,1890.33079681333,1915.5294800976178,1934.7212568343252,1926.0303983798012,1897.638659729754,1919.761197401362,1930.3515485418548,31.207543531075164,-1.1768537058632889,-4.050981206703215,-0.5854639233564878
131,1.320000000000001,2.7544588674098787,0.7145426005261436,2.991801360232569,0.40139614838619303,-0.5505223613447079,0.6248022122072516,0.38135083235926037,12.663754813644244,8.194903303802477,-3.959967307342897,-1.0149020924295138,-1.3683138840644722,-0.6165197166788459,-2.526068979744167,23.677073793955117,-19.56100624347812,0.0,0.0,0.0,0.0,0.0,0.0,0.0,0.0,0.0,0.0,0.0,0.0,0.0,0.0,0.0,1971.8250332056427,1880.8716079451974,1916.3174984594525,1960.92331626696,1953.1129239459572,1904.2465550063887,1927.4193282311066,1951.4177282878736,29.340782181959252,-0.9783248710899292,-5.122504686388525,-0.5966297815962701
132,1.330000000000001,2.8809615557759773,0.7976350023308499,2.9512508360069227,0.40622229578643587,-0.5504757118212552,0.6168255768606391,0.38921221053741323,12.636221443112818,8.422054355094616,-4.148406964475804,-1.0909504278880926,-2.7488449543693143,-0.6046999782807438,-2.890307967437167,22.47115642542319,-18.421779429959706,0.0,0.0,0.0,0.0,0.0,0.0,0.0,0.0,0.0,0.0,0.0,0.0,0.0,0.0,0.0,1957.4289892838183,1816.3940956976273,1834.1042959085544,1950.7990789448806,1927.9933362663116,1847.6139732983531,1860.7705104924216,1923.5553771773448,28.203417564077377,-1.1252804567744163,-5.723322387546097,-0.5567112156332072
133,1.340000000000001,3.0071709022952935,0.8829321826425347,2.9088806875831685,0.414817779819009,-0.5478127352111859,0.6061400039435106,0.400526793493055,12.605103881363187,8.635320150540679,-4.323248513513701,-1.0368337611651688,-3.935173338582124,-0.593471497771085,-3.240127248535174,20.981889792606623,-16.90882265408078,0.0,0.0,0.0,0.0,0.0,0.0,0.0,0.0,0.0,0.0,0.0,0.0,0.0,0.0,0.0,1897.7673547245893,1770.0245602339485,1761.7056465442322,1905.4966910442233,1873.1806421577292,1792.186120777075,1788.4083215800079,1875.9614412363203,25.79794835351498,-0.9613497019491498,-5.391294792189788,-0.5264211186943009
134,1.350000000000001,3.133053961349661,0.9703070197543863,2.864833370757837,0.42632510472311164,-0.5428222347520497,0.5930983883700697,0.4145180674644285,12.571075434530586,8.838526826631606,-4.483923077514742,-1.0910944431316696,-4.819207579973206,-0.576587363572489,-3.51085921769112,20.15543201162373,-15.48535854684463,0.0,0.0,0.0,0.0,0.0,0.0,0.0,0.0,0.0,0.0,0.0,0.0,0.0,0.0,0.0,1850.6562291693965,1739.335252786411,1745.8280145168414,1855.2183959218332,1830.1285699009186,1758.5521147904158,1760.507331620614,1837.4400331972186,23.269377737914297,-0.9860205111184923,-6.191884056507427,-0.5243214597197532
135,1.360000000000001,3.258581831636235,1.0596402427981468,2.819260421036997,0.4391793974120811,-0.536310491136513,0.5786111683283702,0.4297692751597676,12.534023844132076,9.025364344423064,-4.627947037285665,-1.0305884471168767,-5.075970140708598,-0.5557775449446382,-3.8161315172775545,18.214984112026045,-13.752179830972544,0.0,0.0,0.0,0.0,0.0,0.0,0.0,0.0,0.0,0.0,0.0,0.0,0.0,0.0,0.0,1738.9633583023194,1697.7043805794738,1694.752518940476,1757.7895434763786,1733.2448952115012,1696.8811479047881,1697.0737166321146,1747.0307228171664,27.383434314919974,-1.2288468572307596,-8.048578837546136,-0.5210504600372493
136,1.370000000000001,3.3837247501549257,1.1507373299861574,2.7723311422381007,0.45304145375851823,-0.5283418659606467,0.5628805742194471,0.4458405241966862,12.494146530474769,9.191037562467827,-4.7553622049569455,-1.0189309402613542,-5.651861927105792,-0.5357502483758362,-4.084104453609072,16.056902488401192,-12.126294632023082,0.0,0.0,0.0,0.0,0.0,0.0,0.0,0.0,0.0,0.0,0.0,0.0,0.0,0.0,0.0,1660.4431313567532,1607.251683373038,1602.8567335918142,1673.4747337884203,1646.9462889257848,1614.3182259918624,1609.1400373424717,1658.2585057512529,30.847409720477483,-1.3548876086464314,-8.969694493276162,-0.5135220331052276
137,1.380000000000001,3.508462632017605,1.2435564111407924,2.7241757616861526,0.4688960790376018,-0.517912932146043,0.5445052613811258,0.46413002715545504,12.453325658572368,9.379004760099148,-4.874407653815439,-1.1330991419302339,-6.889287193500912,-0.5134806734476758,-4.131003225998242,20.03393844970347,-11.437411245378115,0.0,0.0,0.0,0.0,0.0,0.0,0.0,0.0,0.0,0.0,0.0,0.0,0.0,0.0,0.0,1826.6088318359346,1694.728020861192,1705.3787481396373,1818.7941222265447,1801.6407087854277,1740.435207658614,1739.4777170435063,1800.3002051404665,31.455247300117364,-1.4477453670016889,-9.015451500413047,-0.47200096125159
138,1.390000000000001,3.63278778493898,1.338456674969182,2.6748809442219,0.48687623132878616,-0.5044515324227924,0.5226249411201506,0.48512200292558766,12.411416094721364,9.606885536887262,-4.981910869180491,-1.2476814978575876,-7.924761346387884,-0.488673984760712,-4.285416464000491,23.937897304781686,-9.953345916958511,0.0,0.0,0.0,0.0,0.0,0.0,0.0,0.0,0.0,0.0,0.0,0.0,0.0,0.0,0.0,1938.8856246551356,1808.2390501056473,1817.1930169605241,1924.8214372044592,1918.9454498513014,1843.663110300428,1843.878223524071,1909.7357872796767,32.14437756727337,-1.2402154280288649,-7.982451252302853,-0.4508218215484923
139,1.400000000000001,3.7566823753435608,1.4357536090536944,2.6246051907781243,0.5057487191191452,-0.48853308666437995,0.4978533860274207,0.5076373335015357,12.366992915523396,9.854247626793251,-5.0694758905099,-1.351972761876626,-8.446630104824582,-0.45830930655825614,-4.58480984509535,25.109242841370616,-7.720985106232092,0.0,0.0,0.0,0.0,0.0,0.0,0.0,0.0,0.0,0.0,0.0,0.0,0.0,0.0,0.0,1937.8671192714423,1855.1571062761438,1864.4077155765474,1927.525326072878,1927.57537428751,1869.7578710340506,1872.4254420105462,1920.7551471253644,33.32387397462919,-1.2013479434772905,-8.103032838316645,-0.44988428888912946
140,1.410000000000001,3.880116506399126,1.5355757410278383,2.5735714141631725,0.5238409749028654,-0.4714905815509091,0.47197908281429546,0.5296442295611059,12.31925078186812,10.111680562794342,-5.13317936324471,-1.300457388023762,-8.174295603515729,-0.4270540126390621,-4.932519109903666,26.05532785539566,-5.266085159596479,0.0,0.0,0.0,0.0,0.0,0.0,0.0,0.0,0.0,0.0,0.0,0.0,0.0,0.0,0.0,1911.708967827208,1924.8754668582524,1913.4990646741169,1918.2233912866427,1924.1188188939534,1917.0759525106394,1908.7480447341163,1923.9840770100006,34.24373893382415,-1.4753057873329491,-9.297977993272916,-0.4416512289578789
141,1.420000000000001,4.0030551557072105,1.6380315813528965,2.5220281477704627,0.5407402347312678,-0.45378906410070274,0.4458141975024629,0.5503863962259757,12.267842483831084,10.381322437166386,-5.171011043244475,-1.2622680520026104,-8.149054378005774,-0.4012601329613426,-5.312788513764488,27.307175962578256,-2.588711738748195,0.0,0.0,0.0,0.0,0.0,0.0,0.0,0.0,0.0,0.0,0.0,0.0,0.0,0.0,0.0,1946.0030781804824,1964.9301000545352,1946.2591654365528,1949.204909280652,1952.4155884764364,1963.476848560932,1945.8756161250412,1951.6835214077444,34.3874169496989,-1.594317752876554,-9.647961166232722,-0.4353708121012302
142,1.430000000000001,4.125459867714153,1.743233940060694,2.4702447485709964,0.5572054119684466,-0.43448613561388116,0.4179679769231046,0.5710049886815325,12.212371080553659,10.660373691573247,-5.180733862844239,-1.3788746644417922,-8.75791294050228,-0.3756905612966578,-5.746384464968557,28.113482691917824,0.3582944746298722,0.0,0.0,0.0,0.0,0.0,0.0,0.0,0.0,0.0,0.0,0.0,0.0,0.0,0.0,0.0,2009.302466209846,1957.5918509147743,1954.6376457174122,1991.1240409886284,1995.6126934301897,1977.0112359922005,1964.5407850721692,1983.3083159316793,35.060260413450784,-1.5901829229208404,-9.062158060454793,-0.3857310859237259
143,1.440000000000001,4.247287152896761,1.8512442748087474,2.418513800254656,0.5733207444931455,-0.4131411379871057,0.3876186221975323,0.5919202038807525,12.15226871633565,10.941432071439706,-5.1603169882555155,-1.4887297654433793,-9.197814533577471,-0.348755396720637,-6.234056444018421,27.996763861025897,3.435953260103375,0.0,0.0,0.0,0.0,0.0,0.0,0.0,0.0,0.0,0.0,0.0,0.0,0.0,0.0,0.0,2021.0683574807756,1961.1551803761754,1957.3809025876099,1995.4289735352447,2009.2728221832306,1975.5169108191458,1964.2611092666143,1987.8671357634987,35.510781409816765,-1.4181391193250548,-7.582671119083999,-0.35599782336002533
144,1.450000000000001,4.3684871748110226,1.96206532009117,2.3671497063514892,0.5882753854895119,-0.3906390704010564,0.3558187854922167,0.6121488212797676,12.086784909437366,11.222644905643891,-5.106845696553698,-1.5416206918243913,-9.102463514452515,-0.3179371662706506,-6.803969958525613,27.993480259466352,6.845740240898124,0.0,0.0,0.0,0.0,0.0,0.0,0.0,0.0,0.0,0.0,0.0,0.0,0.0,0.0,0.0,2013.6737867463728,2002.7323578476119,1996.0137732883034,1997.8484000820179,2016.855403067829,2002.8380193482528,1993.212086252688,2001.4970841492984,36.98578229946634,-1.5831401819648707,-6.959438365458544,-0.340866233618148
145,1.460000000000001,4.48900338834175,2.075684942048332,2.3164883205698903,0.6011046814509631,-0.36870752412246877,0.3247470019179753,0.6302914471405288,12.015474477321668,11.500456758470257,-5.020004971122222,-1.483819372687632,-8.302929666045426,-0.2880148347323546,-7.39246728939591,27.49704904584327,10.106095723419806,0.0,0.0,0.0,0.0,0.0,0.0,0.0,0.0,0.0,0.0,0.0,0.0,0.0,0.0,0.0,1986.0983731209467,2054.4739109719385,2034.8568292507084,1984.0110088730876,2007.8734463790406,2037.4431438281044,2020.6126119591222,1999.6720512965114,38.223137745878724,-2.1214964145610447,-7.785747619696152,-0.3315293064829482
146,1.470000000000001,4.608774429589944,2.192078580079438,2.2668708627614857,0.6116000117306266,-0.34835381851712205,0.2953117515908447,0.6460541866964293,11.937590322151154,11.778117638728139,-4.897613806770847,-1.5415485129577715,-7.632283368826984,-0.2632417599730809,-8.086297477284177,27.56192664363688,13.716640193563556,0.0,0.0,0.0,0.0,0.0,0.0,0.0,0.0,0.0,0.0,0.0,0.0,0.0,0.0,0.0,2028.7644897377534,2095.133146955961,2084.1903003273183,2013.3397264956848,2044.5446187974046,2085.208658555506,2069.665381189716,2031.7693131326357,38.224803282727216,-2.378892575896466,-8.622912607489278,-0.31679188552490567
147,1.480000000000001,4.7277306608739265,2.311240380550083,2.218653998413822,0.6203575343473715,-0.32876700789148106,0.2656487188174474,0.660681119974819,11.852346851974644,12.053318875603422,-4.740013240188418,-1.8326949031493978,-7.747109112261105,-0.23678673192386424,-8.873149146051418,27.12837649654176,17.224096803776234,0.0,0.0,0.0,0.0,0.0,0.0,0.0,0.0,0.0,0.0,0.0,0.0,0.0,0.0,0.0,2108.0528598452615,2087.305390070091,2102.9207594679056,2061.6523693623035,2099.7847289661763,2101.2868807175955,2098.532309677112,2068.3906943440024,37.76925283756971,-2.387548904446221,-8.33792886922207,-0.2593365361567628
148,1.490000000000001,4.845795588227149,2.4330991409788107,2.1721694138164196,0.6279365643359927,-0.30851319679691125,0.23378432347449515,0.6751741765423445,11.759285221304058,12.31555821726502,-4.552128321813104,-2.0956884553918536,-8.204491509431906,-0.20509677746670318,-9.677949956337528,25.417777724596746,20.078372189039406,0.0,0.0,0.0,0.0,0.0,0.0,0.0,0.0,0.0,0.0,0.0,0.0,0.0,0.0,0.0,2134.272872008835,2066.8812443279508,2082.402098754971,2082.85731890581,2118.912097981003,2085.1274318693145,2086.1241807834017,2077.9519318569364,35.85538769291686,-2.39511703768804,-7.771134284061947,-0.21897888551684874
149,1.500000000000001,4.962889494288912,2.5574782321611025,2.1276970696539683,0.6342621253294196,-0.28751298867131186,0.20015234532141835,0.6891929166642917,11.658112147584065,12.556322767426686,-4.3381933204540335,-2.2329824474970295,-8.251023553897392,-0.16615754309180614,-10.499916560730682,23.031383124166638,22.540519181108998,0.0,0.0,0.0,0.0,0.0,0.0,0.0,0.0,0.0,0.0,0.0,0.0,0.0,0.0,0.0,2105.0868941062618,2070.0969886816983,2074.4503763384973,2070.7922262746715,2101.2464716510885,2074.4062910505327,2072.716804455624,2069.8172374278247,22.824251973394002,-2.26247351143166,-7.1127771836236215,-0.19903330217425172
150,1.5100000000000011,5.078936450644024,2.684115692791853,2.085450701668368,0.6390487274826522,-0.26667305748504033,0.16620268580641695,0.7020533252859905,11.55020898032496,12.765722816997815,-4.109004875437618,-2.3109144748228347,-7.992971240982096,-0.12461266415445872,-11.1114900848861,19.60529358392371,23.631832390777596,0.0,0.0,0.0,0.0,0.0,0.0,0.0,0.0,0.0,0.0,0.0,0.0,0.0,0.0,0.0,2033.7430695283365,2039.0848820954307,2034.0340093707705,2007.8683470371645,2036.7025857741726,2032.9420247544383,2023.9164211355196,2011.1883889894364,10.23144702156487,-2.2807608269616417,-7.187232906539215,-0.18850857328881884
151,1.5200000000000011,5.193929858519803,2.8125040406325397,2.045279194888051,0.6422683879359512,-0.24671498901940625,0.1331332621777462,0.7133712683821941,11.450315531812805,12.899309931783955,-3.936736839193825,-2.2842898243917977,-7.537002633901494,-0.08696316358146136,-9.739450852620735,10.858228506714696,15.371556445260559,0.0,0.0,0.0,0.0,0.0,0.0,0.0,0.0,0.0,0.0,0.0,0.0,0.0,0.0,0.0,1623.946037349223,1671.5462229963775,1646.3782999003895,1602.3120408861612,1614.9166574673498,1644.095557371956,1618.7763614849966,1588.1729630056168,10.099727646924961,-2.5417522755467625,-8.384726622192822,-0.17120765347205164
152,1.5300000000000011,5.308007112676553,2.9418237960644613,2.006378704004408,0.6441749167199449,-0.22733975853971342,0.10086682832600646,0.7233126528683215,11.367639945686744,12.954588406388169,-3.8561710489452405,-2.285201513582526,-7.372794227416767,-0.055605182965238406,-7.8759320519736775,3.6305737802457827,5.930377958095701,0.0,0.0,0.0,0.0,0.0,0.0,0.0,0.0,0.0,0.0,0.0,0.0,0.0,0.0,0.0,1108.4496029905847,1151.8950746138953,1107.2741973784118,1067.1910719841371,1089.9982241239238,1120.535074675493,1072.9416852389127,1044.6082963825197,9.763232526052045,-2.496213726984745,-8.703054371740762,-0.11175555471801912
153,1.5400000000000011,5.421287884859203,3.0715215541179886,1.9681088669750368,0.6449873874670136,-0.2070141326221711,0.0675226468055423,0.7325142395008718,11.287953004062425,12.98316428262894,-3.796455044115724,-2.4161351481645577,-7.919798981065044,-0.020918236225053996,-8.137447757770033,2.3921271954812084,6.403853031745843,0.0,0.0,0.0,0.0,0.0,0.0,0.0,0.0,0.0,0.0,0.0,0.0,0.0,0.0,0.0,1139.7192885290344,1053.3971244375277,1031.0965126641067,1068.7311759596241,1118.7956488650811,1083.9204036279987,1042.3484034042265,1054.8455816483122,7.722633465782412,-2.213148537973237,-9.412731460379563,-0.06190422083890848
154,1.5500000000000012,5.533754607356713,3.2014490522647163,1.93047726761417,0.6446350556479326,-0.184938136571952,0.03236449048173419,0.7410776412947153,11.20480781959528,13.000304759437505,-3.728472365121178,-2.4497873149390226,-8.308424706652886,0.017944619436349358,-8.478784019734675,1.165551522467112,7.201620415849153,0.0,0.0,0.0,0.0,0.0,0.0,0.0,0.0,0.0,0.0,0.0,0.0,0.0,0.0,0.0,1123.554061756843,1032.4589614303347,1001.8806689977616,1068.9537996592076,1107.2299162374152,1052.239224134589,1017.0419391589015,1050.7704899856162,5.865870916514334,-2.292817473236761,-9.999999999999984,-0.028908350473830266
155,1.5600000000000012,5.645386151667284,3.331470038305858,1.893513604930331,0.6430322808306204,-0.16050237398580539,-0.00423765006237914,0.7488194148635838,11.121558616310852,13.00114602540152,-3.665194661157167,-2.3261492055305126,-8.874876596780759,0.058292247991388095,-8.362110350528695,-0.5990456337023886,6.2954284630172275,0.0,0.0,0.0,0.0,0.0,0.0,0.0,0.0,0.0,0.0,0.0,0.0,0.0,0.0,0.0,1007.5806109895874,924.7229684415603,849.4989355777265,985.9922296503537,993.4925934087165,933.4711983059964,873.99682012527,956.4398128882502,5.602109092849435,-2.7508835966595884,-10.0,0.004838692059532544
156,1.5700000000000012,5.756192472157667,3.461415904672413,1.8571368753565753,0.6399475569275347,-0.1333991388441353,-0.042381418238454364,0.7555631075735635,11.03987875532195,12.985433053264543,-3.6112339580579476,-2.313829597901666,-9.44651628115041,0.1032390826850769,-8.174138710089096,-2.2365009739164776,5.312127875769512,0.0,0.0,0.0,0.0,0.0,0.0,0.0,0.0,0.0,0.0,0.0,0.0,0.0,0.0,0.0,908.4977086136645,787.4917345344393,718.4865710613361,865.8045515197762,887.2457502555319,809.3089758007982,737.4067091598872,837.0621286843447,7.251664826743868,-3.1382856409736872,-10.0,0.02246128305791157
157,1.5800000000000012,5.866181018134722,3.5911305331831875,1.821291766879197,0.6350431006406351,-0.10481301325570737,-0.08207198015428761,0.7609196295631632,10.957556998291338,12.955066529107627,-3.557171936438851,-2.5300119092367783,-9.712809234987205,0.15177851416152421,-8.313814103276584,-3.6972790766931496,5.594939944586486,0.0,0.0,0.0,0.0,0.0,0.0,0.0,0.0,0.0,0.0,0.0,0.0,0.0,0.0,0.0,901.150745920957,754.976799379543,758.1399726542669,780.4099046771161,878.0429533901125,788.5641961060217,750.4403431888876,780.9407873788492,10.790431362483243,-2.840228408376475,-9.999999999999996,0.05794585638899007
158,1.5900000000000012,5.975325569590147,3.7204652310516884,1.786049455638789,0.628140169092035,-0.07601563804702918,-0.12312654832857553,0.7645269150540247,10.870407537652058,12.908988058311746,-3.4885040057289687,-2.8171164117633687,-9.852403772160898,0.20447952700254068,-8.918697946258547,-5.399254776810025,7.418251134708509,0.0,0.0,0.0,0.0,0.0,0.0,0.0,0.0,0.0,0.0,0.0,0.0,0.0,0.0,0.0,1001.0179962677588,873.3264375730004,897.6808849843771,841.3637302178303,988.5900633838634,905.597874878091,885.8242218262111,859.7865041073244,25.515008221916194,-3.3438798076289893,-9.999999999999996,0.07642778244523735
159,1.6000000000000012,6.083554340652138,3.8492375538248926,1.7516288795504347,0.6192626753882158,-0.04711198494536876,-0.16470784138890743,0.7662672684713495,10.773696236919497,12.841366431672611,-3.390745402459571,-2.8114393737624814,-9.925132782797677,0.25854812384099407,-9.998047989398628,-7.844857179224007,10.669247576869267,0.0,0.0,0.0,0.0,0.0,0.0,0.0,0.0,0.0,0.0,0.0,0.0,0.0,0.0,0.0,1148.0147192877955,1117.7282473190992,1068.851990984875,1068.9853718954294,1163.2109524807142,1126.6451880025638,1083.7402741713247,1070.1605893595342,36.29681242399628,-3.6951551403309923,-10.0,0.09082893257527505
160,1.6100000000000012,6.1906842807947235,3.9771266519210995,1.7186029604150288,0.6084689993046509,-0.018281142200252412,-0.2064571259918425,0.7660331140702987,10.64617932197273,12.726185140033252,-3.195575373386645,-3.065785527977741,-9.963547003067092,0.31116161971003725,-13.937034021623163,-14.005527095116932,22.99089851893621,0.0,0.0,0.0,0.0,0.0,0.0,0.0,0.0,0.0,0.0,0.0,0.0,0.0,0.0,0.0,1728.019313251731,1680.6535932398692,1674.3925582570514,1634.6263985563376,1746.9617976190925,1723.0157153994771,1691.7966032924455,1674.3043930933368,38.2257713212532,-3.4386369308862106,-10.0,0.13645996586858755
161,1.6200000000000012,6.296360225348015,4.103515590996767,1.68805686797929,0.5957608542416094,0.009806268270254883,-0.24878289937065692,0.7635966937046343,10.484369949800433,12.539150483693426,-2.901686577583761,-3.3564179374494496,-9.98314896962852,0.3667375093775225,-17.05676082544194,-21.690629967361374,31.346105348657005,0.0,0.0,0.0,0.0,0.0,0.0,0.0,0.0,0.0,0.0,0.0,0.0,0.0,0.0,0.0,2068.85993705277,2022.0157054557294,2019.123566019825,1973.9525774648257,2079.083852126436,2049.1091628227687,2027.2745395650952,1998.2552349274795,40.589076633669976,-3.1160743113816327,-10.0,0.15212656312796433
162,1.6300000000000012,6.400331249083601,4.227707813884345,1.6606278860042147,0.5811685726337729,0.03738675246100644,-0.29105540900207333,0.7590336420830622,10.309022162812628,12.290431121312604,-2.585201396354823,-3.373714695453065,-9.993344389981802,0.42392242204437175,-17.658781540161428,-27.136942919705476,31.060807060396822,0.0,0.0,0.0,0.0,0.0,0.0,0.0,0.0,0.0,0.0,0.0,0.0,0.0,0.0,0.0,2120.526821586167,2106.212627544699,2070.878496277715,2056.448155824642,2126.4760309058242,2109.5771745495804,2074.682523728181,2057.0033657125787,41.98696919960884,-2.3551961587023893,-10.0,0.18049910306064923
163,1.6400000000000012,6.502524297284661,4.349138031518114,1.6363292418167112,0.5647263611529227,0.06499691871401371,-0.3323085447765905,0.7526158174295352,10.12919149172903,11.986666643075193,-2.276883310237018,-3.2340740094120273,-9.998773303911127,0.4745997636946174,-17.99157258746753,-32.6333436458075,29.926074721790652,0.0,0.0,0.0,0.0,0.0,0.0,0.0,0.0,0.0,0.0,0.0,0.0,0.0,0.0,0.0,2175.0604219455436,2184.4835155117453,2120.706884029817,2129.231829580882,2184.1334697228285,2184.2203081697157,2127.734166675734,2126.4275360031374,43.074927386159615,-1.755366801855958,-9.999999999999998,0.17592424335064039
164,1.6500000000000012,6.6029158888602515,4.467269816594693,1.6150223812672542,0.5464451708736812,0.09320757756438837,-0.3715477438555748,0.7447565352175463,9.949693112915764,11.63172061268392,-1.988859079291243,-2.790281654891465,-10.00141369484119,0.5131108439743994,-17.72230771039851,-37.51988008475671,27.465311838909656,0.0,0.0,0.0,0.0,0.0,0.0,0.0,0.0,0.0,0.0,0.0,0.0,0.0,0.0,0.0,2196.6213107501435,2240.5686087230965,2140.22514139047,2183.6622801386006,2211.2166933174303,2231.793448325861,2153.605913505745,2173.0285869324457,43.64899125152987,-1.5034559306793212,-9.999999999999995,0.2979232457926227
165,1.6600000000000013,6.701536938265788,4.581617936030202,1.5964558288237192,0.5263497652927286,0.12242859001691805,-0.40801719987390705,0.735859449575675,9.775940128528008,11.230761223249036,-1.729899163993997,-2.281699334189968,-10.002502492261307,0.5333978465855654,-16.928672472399597,-41.90655452167036,24.313841748144547,0.0,0.0,0.0,0.0,0.0,0.0,0.0,0.0,0.0,0.0,0.0,0.0,0.0,0.0,0.0,2221.4352654007193,2277.6090669918017,2160.288453581632,2216.313958915091,2235.307133995217,2267.9636452317836,2173.5472346487,2205.489521571907,43.92052883693804,-1.492067239885231,-9.999999999999998,0.44967616732138194
166,1.6700000000000013,6.798472114914554,4.691754000007333,1.5803045298689122,0.5045329629611343,0.1524672455588858,-0.4417844452937658,0.7259660682248343,9.61336562145987,10.790534000896711,-1.5068231730660135,-1.9027734310392892,-10.002811979937169,0.5505193638319323,-15.606004314122401,-45.53564571446422,20.503136645283025,0.0,0.0,0.0,0.0,0.0,0.0,0.0,0.0,0.0,0.0,0.0,0.0,0.0,0.0,0.0,2234.626262132459,2278.193020045349,2191.326253299974,2234.1779603402556,2242.7192762573327,2271.6526578438798,2199.7597166136693,2227.6753211636074,44.19967218109684,-1.6296826190563183,-9.821786412201073,0.5717841515469386
167,1.6800000000000013,6.893856175432396,4.7973222262174655,1.56618270358057,0.4811101387820405,0.1827941024793837,-0.4733705771440782,0.7148703708744437,9.46630284320517,10.318367521380491,-1.324673251695086,-1.699718999469124,-10.002889927031177,0.5779463454439792,-13.914149383252195,-48.43709182831368,16.2586386016339,0.0,0.0,0.0,0.0,0.0,0.0,0.0,0.0,0.0,0.0,0.0,0.0,0.0,0.0,0.0,2241.8297066070263,2263.975082472152,2220.904328627391,2241.751615188614,2245.2138968783474,2261.4330263767915,2224.2479689000393,2239.129034180511,43.15159236549359,-1.5784395834763496,-8.018089438822825,0.654588464944763
168,1.6900000000000013,6.987858381897653,4.898033883112403,1.5536656703665574,0.45634819486867895,0.21267876680332146,-0.5032229167808219,0.7023394928506573,9.337280044299376,9.820120328471218,-1.1861872686658668,-1.657554372099616,-9.908900793036882,0.6172442429707548,-12.042118145229708,-50.79884083642483,11.811950739915922,0.0,0.0,0.0,0.0,0.0,0.0,0.0,0.0,0.0,0.0,0.0,0.0,0.0,0.0,0.0,2248.6439638403162,2256.184803619359,2249.3219615932944,2242.98140514436,2250.6861595630667,2255.7398059660586,2247.1925790529026,2245.0096518264395,41.99367331883907,-1.3307808202177582,-6.34215550426885,0.6637757886124843
169,1.7000000000000013,7.0806709551255285,4.993692726965501,1.5422948967284682,0.4317544443740763,0.24000788748061797,-0.5304174732203596,0.6889423907794126,9.228521197265918,9.310522305435748,-1.0957956736833938,-1.6039219408313092,-8.91563914616021,0.6612841196475199,-10.021159742013452,-51.33298286320098,6.999773232299056,0.0,0.0,0.0,0.0,0.0,0.0,0.0,0.0,0.0,0.0,0.0,0.0,0.0,0.0,0.0,2189.2360258329713,2255.976794906324,2258.626907078259,2188.646177383504,2207.7411392652252,2238.247209151362,2240.9082111266184,2204.159908386909,41.61614916660478,-1.1555918456046572,-5.370442077106441,0.6913242536979496
170,1.7100000000000013,7.172492161299225,5.084247363553346,1.5315976015840078,0.40908645430668616,0.26298902190062584,-0.5537572766382018,0.6758978664212351,9.138581311498926,8.800645134643702,-1.0505650402195446,-1.455809782662384,-7.604569848091817,0.6968315587958338,-8.256475433210397,-51.01998631022653,2.74321087063667,0.0,0.0,0.0,0.0,0.0,0.0,0.0,0.0,0.0,0.0,0.0,0.0,0.0,0.0,0.0,2133.7275523447906,2254.834354683206,2242.5079607399753,2139.9027349024186,2163.019469159905,2227.431630269153,2220.1705196354237,2159.690129902218,38.835750028655575,-0.7226326770389531,-3.907233782841964,0.3761996536526162
171,1.7200000000000013,7.26349386157973,5.169707553501149,1.5211596709128,0.3888255814203719,0.28172951548089603,-0.5733194094976543,0.6638885463940993,9.064082090914669,8.291508371200011,-1.042639940052134,-1.3007620545979295,-6.49127343507854,0.7220655787010813,-6.841207612371392,-50.904899740254805,-0.6794545950603581,0.0,0.0,0.0,0.0,0.0,0.0,0.0,0.0,0.0,0.0,0.0,0.0,0.0,0.0,0.0,2123.0209926033012,2245.3065582383388,2228.5566335133867,2132.706670216142,2147.9556649159376,2222.333883468794,2211.19521224203,2149.127251415498,33.38492924802168,-0.3088152319952535,-2.3318492962337283,0.2898574223388935
172,1.7300000000000013,7.353820790955204,5.250155648403375,1.5106308574919798,0.3713157037310059,0.2965065692592277,-0.5891340107538566,0.653551543431691,9.003366951011333,7.802005959977602,-1.0680594751191101,-1.0094554256987047,-5.182575935174668,0.7048481076010857,-5.5530429976666795,-48.205492748441436,-3.7719125625494954,0.0,0.0,0.0,0.0,0.0,0.0,0.0,0.0,0.0,0.0,0.0,0.0,0.0,0.0,0.0,2064.769886851408,2214.0637235590602,2127.9122424387174,2035.2663109448,2093.3755402405645,2183.673499743754,2108.6209609370467,2047.0050044139327,37.017190606819966,-0.33649154706906687,-1.5195572394651866,0.4269828627792359
173,1.7400000000000013,7.443601280449702,5.325927817843228,1.4997033229547674,0.3572567644809183,0.30725255042258254,-0.6008744962699601,0.6456882484789125,8.954355390286524,7.360410439928019,-1.1212069951185997,-0.6655366695790663,-3.7383663904129056,0.6593857429385965,-4.511118637049449,-42.64785803202198,-6.201261286880921,0.0,0.0,0.0,0.0,0.0,0.0,0.0,0.0,0.0,0.0,0.0,0.0,0.0,0.0,0.0,1905.0602801018908,2088.0370298624666,1974.410867192781,1872.1356181118665,1933.4101059221416,2048.7309769191706,1950.591734841432,1884.264048398812,38.56177286710443,-0.41103816573944163,-0.7664460965106419,0.7125616136652246
174,1.7500000000000013,7.532928790580309,5.397317125913748,1.4881625966385525,0.3465740382387773,0.314420294325427,-0.6092876886669464,0.6401521904782241,8.911990626364418,6.9133926558012835,-1.188662005529902,-0.5121514156030995,-2.637307476646904,0.623481562534751,-4.008631962543419,-45.39899809303982,-7.21992177206543,0.0,0.0,0.0,0.0,0.0,0.0,0.0,0.0,0.0,0.0,0.0,0.0,0.0,0.0,0.0,2003.1337092906024,2142.4594848570027,2081.0207531629753,1984.5032770099942,2030.7832677833926,2123.0806410990267,2068.6126921445716,2010.8540325333424,38.63680486249405,-0.31160691429985027,0.06232667381357204,0.6832576777223702
175,1.7600000000000013,7.621856104780609,5.464141898851521,1.475898511518505,0.33882012215661217,0.31850370369344305,-0.6154747242017917,0.6363546019508827,8.874081637924606,6.449935134591816,-1.265519326394907,-0.4647060698656023,-1.7053787412165582,0.6254393100016596,-3.636149603156724,-46.58358484962832,-8.043649954897703,0.0,0.0,0.0,0.0,0.0,0.0,0.0,0.0,0.0,0.0,0.0,0.0,0.0,0.0,0.0,2039.6547650494042,2142.7136389311463,2149.791571074979,2060.642130023809,2057.5819696324406,2128.0727166711913,2137.1638866380886,2081.315001634539,38.8836239205565,-0.24892448745290724,0.8001769146737822,0.6878506850117133
176,1.7700000000000014,7.7104198067929515,5.526316545854844,1.462828805698292,0.3337047389066926,0.31973733679000055,-0.6198906658534311,0.6341488351179428,8.838961893593398,5.985542295682216,-1.3493086970184862,-0.3881367446644634,-0.8181887699602254,0.6362786242725537,-3.4424013832143885,-46.27295228859296,-8.59671791237071,0.0,0.0,0.0,0.0,0.0,0.0,0.0,0.0,0.0,0.0,0.0,0.0,0.0,0.0,0.0,2049.5971546708097,2145.4663810914467,2146.7446703579067,2067.810952058787,2067.9435765069193,2129.4505470228432,2133.154104852892,2082.0056116611704,39.57136198029699,-0.20354237959996468,1.4331196776841164,0.6720066585700855
177,1.7800000000000014,7.798638278063628,5.58386054372252,1.4489001745204915,0.3310540130126065,0.3183707060515561,-0.6226675373732549,0.6335049107134129,8.804719681337422,5.523658749109842,-1.4367496529699724,-0.3218341776152195,-0.0073239935428294,0.6443195378035768,-3.438967854897612,-46.05081142438028,-8.814602434272123,0.0,0.0,0.0,0.0,0.0,0.0,0.0,0.0,0.0,0.0,0.0,0.0,0.0,0.0,0.0,2060.1349506003476,2149.3358346155596,2149.133571030333,2077.8155620509638,2077.1330010550514,2134.4313865382974,2136.643784755102,2091.3068073996938,40.18268877346881,-0.1568776928854766,1.980702049073266,0.5764030828835067
178,1.7900000000000014,7.886510940171437,5.636784241476174,1.434092348825428,0.33065266311035135,0.31466553744438613,-0.6239909463403392,0.6342631274228041,8.76950285183825,5.060848911996702,-1.5246468805223083,-0.26679756729771237,0.7130435398228826,0.6489851547298472,-3.6151842871152695,-46.26235384164179,-8.72858828534473,0.0,0.0,0.0,0.0,0.0,0.0,0.0,0.0,0.0,0.0,0.0,0.0,0.0,0.0,0.0,2085.0944183485867,2164.6009111065373,2161.357043531773,2097.929545726197,2100.4691589184035,2152.2029013442516,2150.7125699613803,2110.5847594167026,40.4804986836796,-0.09584296807476708,2.4610998167575713,0.49795426225214445
179,1.8000000000000014,7.974019398290198,5.685070345885622,1.4184150042067403,0.33226315638703047,0.3089023307034024,-0.6240156781975065,0.636227143681751,8.731609967095626,4.596205669433149,-1.6102229428230115,-0.21645912685246885,1.3466172317959662,0.6421096538139586,-3.9539326248068107,-46.43410066778575,-8.382472606653257,0.0,0.0,0.0,0.0,0.0,0.0,0.0,0.0,0.0,0.0,0.0,0.0,0.0,0.0,0.0,2114.4825955381216,2184.6024424674847,2165.598857092533,2110.553017536667,2127.9025333345458,2173.8819980840076,2156.3777209213526,2121.409294476015,40.643074129977066,-0.021891372562412997,2.848851575967549,0.4576513097815011
180,1.8100000000000014,8.061129245429536,5.7287099841210996,1.401903561084769,0.3356626966370335,0.3013635646514627,-0.6228314044730557,0.6392117001346578,8.689552403881132,4.131993327343695,-1.691099524476383,-0.1614297581513415,1.9037071515206803,0.6237564466371859,-4.430832569347842,-46.30924169510031,-7.814820631228292,0.0,0.0,0.0,0.0,0.0,0.0,0.0,0.0,0.0,0.0,0.0,0.0,0.0,0.0,0.0,2132.2730851411366,2195.2504750370413,2163.9238639003024,2117.4041311152764,2143.5750711957858,2185.024067201643,2156.156799609578,2126.550710327778,40.81922981163171,0.04783451236159418,3.1470620269004175,0.41812875262016763
181,1.8200000000000014,8.14779235832125,5.767718030905348,1.3846155406050236,0.3405979798783679,0.29232734227300594,-0.6205033162124362,0.6430500568631846,8.64207517690354,3.6701123011009265,-1.7652235350451617,-0.09780484078776704,2.37526056224118,0.600336060203258,-5.022010438530344,-46.0322211042814,-7.056408280545545,0.0,0.0,0.0,0.0,0.0,0.0,0.0,0.0,0.0,0.0,0.0,0.0,0.0,0.0,0.0,2141.997078296004,2198.2875123933063,2162.0094916624103,2124.8656590408605,2151.451612971005,2188.8431911951966,2156.038005217348,2132.2891629286923,40.97906898181364,0.11708074482231437,3.3613620061089526,0.3730140519426206
182,1.8300000000000014,8.233949202854985,5.802121316122974,1.3666275242782644,0.34678377288441853,0.28206857896963367,-0.6171139278568457,0.6475714104770186,8.58814580968829,3.2110699436689054,-1.8308313120996993,-0.03195730975225569,2.7595373490756887,0.5746578213614904,-5.70665344097776,-45.739101190557015,-6.135184871217225,0.0,0.0,0.0,0.0,0.0,0.0,0.0,0.0,0.0,0.0,0.0,0.0,0.0,0.0,0.0,2151.824945131562,2200.5056799729173,2160.939478997701,2132.7564202818094,2159.6149175967757,2192.498198906343,2156.6139247094993,2138.608897571459,41.143624641775745,0.1776020792890889,3.5007399662693994,0.32793876317816467
183,1.8400000000000014,8.319531066524469,5.8319498354241945,1.3480321382723763,0.35393750182531175,0.270856426104912,-0.6127618555608252,0.6526009114374468,8.52696758798471,2.7552384329108626,-1.8864880309586223,0.035273144814537416,3.058427213433086,0.5467983108231574,-6.459860997317435,-45.3979057856686,-5.085955000091902,0.0,0.0,0.0,0.0,0.0,0.0,0.0,0.0,0.0,0.0,0.0,0.0,0.0,0.0,0.0,2161.6077675736174,2202.450297792079,2159.392126586266,2139.7230874881247,2167.7960918692283,2195.8550671086946,2156.600536099744,2144.010093339608,41.066755722959115,0.19186061501024854,3.5287112122136945,0.31102556698591427
184,1.8500000000000014,8.404462445355051,5.85723777926356,1.3289347091450978,0.36179570008681905,0.2589486375877991,-0.6075568680923388,0.6579697003084105,8.457972943913308,2.3030222890738616,-1.9310821885265919,0.09904002207734694,3.277357353470341,0.5169431579074538,-7.260267604179305,-45.01734564211057,-3.9396551684187653,0.0,0.0,0.0,0.0,0.0,0.0,0.0,0.0,0.0,0.0,0.0,0.0,0.0,0.0,0.0,2171.3748122801007,2204.2189570327914,2158.6274279654476,2146.407722181046,2175.980502261604,2199.054413272616,2157.190329096803,2149.416453833436,40.88120906335805,0.19893589296971506,3.462840346241961,0.2952751232747141
185,1.8600000000000014,8.488663923039038,5.878029987124629,1.3094491429336006,0.3700924114684687,0.2466041764281945,-0.601677862604672,0.6634770054742659,8.380986048671362,1.856497751624389,-1.9640745249098626,0.1383562460144481,3.3994284988422874,0.48816987922532845,-8.060962366483793,-44.3663693518741,-2.7682839987868135,0.0,0.0,0.0,0.0,0.0,0.0,0.0,0.0,0.0,0.0,0.0,0.0,0.0,0.0,0.0,2174.3598591232258,2195.9522797328927,2154.9019139186967,2148.678340523204,2176.1946987537985,2192.706122034323,2154.288807972063,2150.4051149550705,40.695366832690084,0.19154268162803775,3.337980155439273,0.27743335017231646
186,1.8700000000000014,8.57205586437056,5.894393669164716,1.2896919678799563,0.37854853459433424,0.23409275187551046,-0.5953519443935184,0.6689227554678417,8.296094527756903,1.417550238458474,-1.9854272350331792,0.16294497928673063,3.4270067914233553,0.4615347939284316,-8.84400401467289,-43.5598026762698,-1.610732888776667,0.0,0.0,0.0,0.0,0.0,0.0,0.0,0.0,0.0,0.0,0.0,0.0,0.0,0.0,0.0,2174.1404662840428,2184.7354657625638,2147.804103486522,2148.2879795869567,2173.8695002985655,2183.3456652986683,2148.3970170292073,2148.415010899271,40.51183839876148,0.16622946527586385,3.163133733115853,0.2583013927936343
187,1.8800000000000014,8.654560210186451,5.906409129332062,1.2697785536576094,0.38692019292105395,0.22166386114397246,-0.5887886515132338,0.6741556354595785,8.203511296994877,0.9869200158878307,-1.995382648551106,0.1724827565661952,3.3787728159436075,0.4364634835234905,-9.600720330595891,-42.71109348275137,-0.4884508330360582,0.0,0.0,0.0,0.0,0.0,0.0,0.0,0.0,0.0,0.0,0.0,0.0,0.0,0.0,0.0,2173.362477356042,2174.3579881650885,2140.758896844564,2146.844744367798,2171.5121778181765,2174.6229315439205,2142.3326849186624,2145.890661106946,40.35425886911096,0.125840713390545,2.9514830862649015,0.238119460476951
188,1.8900000000000015,8.736101614567907,5.91416122779711,1.2498205976436811,0.3950199114302074,0.20952241257533105,-0.5821847655703419,0.679058559286377,8.10357173141243,0.564918636135391,-1.9944391937578778,0.16559577908654563,3.267436455737848,0.41232581255518047,-10.318362986016183,-41.837424677959255,0.5724868997274424,0.0,0.0,0.0,0.0,0.0,0.0,0.0,0.0,0.0,0.0,0.0,0.0,0.0,0.0,0.0,2172.278020503692,2164.777188401032,2134.2782879927427,2144.4695764117073,2169.05003245735,2166.49740747993,2136.5385103969616,2142.7884556454305,40.195768475412955,0.06793048145466377,2.7008837038477074,0.21642607506395078
189,1.9000000000000015,8.816608544223556,5.917736668329581,1.2299237467912678,0.4027076843470971,0.19783346236724422,-0.5757235240694167,0.6835428779298915,7.996690559719606,0.15157985077063177,-1.9832913251805706,0.14307016254137284,3.1062096998069975,0.3886444997262698,-10.991911697032286,-40.97105862376013,1.5566334519030445,0.0,0.0,0.0,0.0,0.0,0.0,0.0,0.0,0.0,0.0,0.0,0.0,0.0,0.0,0.0,2171.35858674776,2156.6056788777883,2128.915423906129,2141.981291700894,2167.018381538779,2159.560282694382,2131.704835726052,2139.8178520711685,39.97899571224087,0.02145947306949403,2.399630573994714,0.19517873029147345
190,1.9100000000000015,8.896014027084501,5.917222162545366,1.2101857290726845,0.4098754406805955,0.18673506775490803,-0.5695792003266335,0.6875403058386689,7.883372698698061,-0.25306521005846777,-1.962837709668857,0.10394826229494951,2.900213581734332,0.36500791395453347,-11.611196077676134,-40.100781200641144,2.4420890086460645,0.0,0.0,0.0,0.0,0.0,0.0,0.0,0.0,0.0,0.0,0.0,0.0,0.0,0.0,0.0,2170.297708785449,2148.8627889253944,2123.7952921612314,2138.947048440553,2164.863214029221,2152.9615467864237,2126.9788335084527,2136.3871189465826,39.7674037426726,-0.03637420901605006,2.0928254197764478,0.17605144198229325
191,1.9200000000000015,8.974256877436574,5.9127061024725425,1.1906939207578233,0.4164152534915755,0.17637885427022232,-0.5639073948380178,0.6910117846121515,7.764285967108354,-0.6486735815690728,-1.9342615726992516,0.06228906811807958,2.646070830222944,0.34132040624208854,-12.15622353621626,-39.1886768589661,3.1986556492895613,0.0,0.0,0.0,0.0,0.0,0.0,0.0,0.0,0.0,0.0,0.0,0.0,0.0,0.0,0.0,2167.0482295443576,2140.271882310281,2116.407885938703,2135.2314978839445,2160.736923475294,2145.1252093213266,2120.40895044797,2131.7365233597534,39.56648082769325,-0.11029012019866286,1.7914375908954678,0.15760959462610935
192,1.9300000000000015,9.051282957076484,5.904279108894487,1.1715233517299233,0.422248682787566,0.16688768770540754,-0.5588307266044944,0.6939472376047051,7.640133092482271,-1.0352942563925942,-1.898792038109544,0.01299533883180644,2.3664445170304638,0.3178401853800167,-12.632130897686444,-38.30148211553719,3.833534134726646,0.0,0.0,0.0,0.0,0.0,0.0,0.0,0.0,0.0,0.0,0.0,0.0,0.0,0.0,0.0,2163.054572266322,2132.1739170828187,2110.0963516426737,2130.9065472551056,2156.1295667767304,2137.6630272596417,2114.400985138611,2127.1295780079545,39.40573486070718,-0.18508044255465006,1.5037374184083783,0.14014141182219894
193,1.9400000000000015,9.12704500648453,5.892029377957938,1.1527368975546886,0.42735235306419556,0.15831078490750994,-0.5544496337099043,0.6963427786596313,7.51158980252011,-1.4132899243706538,-1.8576403742488112,-0.04789880060126339,2.076595208045324,0.29471499509526344,-13.041800146577742,-37.45667531536401,4.347269308020207,0.0,0.0,0.0,0.0,0.0,0.0,0.0,0.0,0.0,0.0,0.0,0.0,0.0,0.0,0.0,2158.7728166400934,2124.807507025499,2105.169903704543,2125.8226653087295,2151.447909364517,2130.751655384407,2109.319157939003,2122.212748730267,39.25777277624846,-0.2653081279768107,1.2233518921525168,0.12259019600289803
194,1.9500000000000015,9.201502132125158,5.876040154545653,1.1343856364594347,0.4317382701162468,0.1506494846195622,-0.550830613782852,0.6982065839137422,7.379239699153351,-1.7833093647529312,-1.8119362725102721,-0.11487158489834605,1.7883526297595616,0.27205969332292407,-13.397210290250428,-36.68630488732227,4.752185865088299,0.0,0.0,0.0,0.0,0.0,0.0,0.0,0.0,0.0,0.0,0.0,0.0,0.0,0.0,0.0,2154.6012338613423,2119.299393479305,2101.70820315532,2121.453566935442,2147.287853030595,2125.351204142023,2105.7122944195353,2118.0733198246267,39.0473964133694,-0.31793533480751085,0.9158560206390043,0.10509360819075755
195,1.9600000000000015,9.274619043396873,5.8563880454447705,1.1165095328854402,0.43543172827199567,0.14388499545932992,-0.5480125729946166,0.6995559576871258,7.243638418266802,-2.1459578030895283,-1.762795016332654,-0.1879228567905172,1.504145108693245,0.2499170649715156,-13.697700183451289,-35.972224012648546,5.045558422305696,0.0,0.0,0.0,0.0,0.0,0.0,0.0,0.0,0.0,0.0,0.0,0.0,0.0,0.0,0.0,2150.5235391768847,2114.5288066906965,2098.7400256687874,2117.241103602388,2143.213810310607,2120.6410072847248,2102.5198396227006,2114.090870051116,38.84798175349395,-0.378427962593697,0.6394847895518677,0.08835086093971087
