,t,px,py,pz,qw,qx,qy,qz,vx,vy,vz,omex,omey,omez,accx,accy,accz,taux,tauy,tauz,jerkx,jerky,jerkz,snapx,snapy,snapz,bomex,bomey,bomez,baccx,baccy,baccz,mot1,mot2,mot3,mot4,motdex1,motdex2,motdex3,motdex4,f1,f2,f3,f4
1,0.02,-6.205777397857023,3.758405928894332,0.49209371612300323,1.0,1.2165270103623684e-27,5.303110032292305e-28,3.800941958135414e-28,-2.173939756061827e-25,-3.4026522661989097e-26,-0.0976984223252669,-4.141282798647678e-26,2.3232383638905356e-26,-9.193392323964714e-27,1.2006969400203235e-25,2.3440315007392428e-26,-9.73683474901385,0.0,0.0,0.0,0.0,0.0,0.0,0.0,0.0,0.0,0.0,0.0,0.0,0.0,0.0,0.0,0.0,0.0,0.0,0.0,0.0,0.0,0.0,0.0,13.966848514005296,10.0,7.635905030003895,0.3138743230809494
2,0.03,-6.205776986833837,3.758405269272061,0.491029517091802,0.9999870342511652,0.0042538112551493,0.0027868134628895,-0.00026474532611444473,0.00023702016914627766,-0.0003732363173345536,-0.07941529808264962,2.403824909572206,1.6812873519279825,-0.15145034170038482,0.09130240697609446,-0.14057427381621576,9.343212104165776,0.0,0.0,0.0,0.0,0.0,0.0,0.0,0.0,0.0,0.0,0.0,0.0,0.0,0.0,0.0,0.0,2635.4716135978824,1100.8256982996538,1599.9751816591793,0.0,2688.1096340989584,1257.9333765172596,1624.1755327027643,13.966848514005296,10.0,7.635905030003895,0.3138743230809494
3,0.04,-6.20576245137012,3.7583840976799676,0.49066670755895997,0.9995343684741635,0.024577927173814778,0.0180315792574353,-0.0013542098348237699,0.0034383806754526066,-0.004877709080612017,-5.5707773336853214e-05,5.491177592732434,4.208226748332492,-0.2382983338769885,0.5383437437323038,-0.7369242770081481,6.09490145677751,0.0,0.0,0.0,0.0,0.0,0.0,0.0,0.0,0.0,0.0,0.0,0.0,0.0,0.0,0.0,0.0,2117.411756428918,1301.4701032253802,1606.6023921632109,0.0,1988.9526452954408,1331.0560069680228,1592.9760349932646,13.966848514005296,10.0,7.635905030003895,0.3138743230809494
4,0.05,-6.205690312233709,3.758284427565054,0.4909160847353865,0.997414414045841,0.057314922874855914,0.04329567466980088,-0.002229534554065014,0.012019095591337495,-0.016389050525133127,0.046515304786663034,7.454503601451119,5.789394576498702,-0.10313055771510414,1.1529532936685893,-1.5329397044869173,3.954454104439266,0.0,0.0,0.0,0.0,0.0,0.0,0.0,0.0,0.0,0.0,0.0,0.0,0.0,0.0,0.0,633.3521021575913,1755.760208088814,1356.545082332249,1550.8513105591594,855.9516362103158,1675.906979096582,1364.5938311983837,1534.136113761583,13.966848514005296,10.0,7.635905030003895,0.3138743230809494
5,0.060000000000000005,-6.205497033665277,3.7580238490470874,0.49157310041974983,0.9924557916164074,0.09748433580463388,0.07431980467543177,-0.0022073950224838906,0.02804425060873474,-0.03755512331301612,0.08445504597079675,8.555427492575543,6.633426609225665,0.09480724078129828,1.988215608097938,-2.6177059769700235,3.6683872248602643,0.0,0.0,0.0,0.0,0.0,0.0,0.0,0.0,0.0,0.0,0.0,0.0,0.0,0.0,0.0,1039.9507647332528,1598.220817047047,1371.8294436065974,1491.5547674714064,1111.4243985505336,1567.7441253066095,1372.0752118980465,1476.9330122168888,17.525068354806997,6.204038832912744,3.121412504875125,0.0677807100410486
6,0.07,-6.205100086966753,3.757495207686295,0.49259320378018706,0.9839956637620622,0.14160332459895036,0.10816492699181826,-0.0011750441853678737,0.052845767471632187,-0.07012156427269696,0.11877307722666827,9.175899596243779,7.096467825188059,0.2997288941025622,2.8865121319586393,-3.7840598383686306,3.204591023162895,0.0,0.0,0.0,0.0,0.0,0.0,0.0,0.0,0.0,0.0,0.0,0.0,0.0,0.0,0.0,1221.3115107949225,1520.416287606154,1364.9193818169313,1444.5598910803446,1259.2404091686738,1505.348739629641,1361.5594423447171,1432.2716204624132,24.355341431978914,8.694985557990613,4.30347336240323,0.06330884094111958
7,0.08,-6.20439072269409,3.756556415485498,0.49400588965057707,0.9731516285279598,0.18404726557303355,0.13821123124540294,0.000409250655291053,0.09171593449610241,-0.12130109891408897,0.16730110006201157,7.897454905968139,5.209158023118979,0.447370563138912,4.470060243420685,-5.933255041476543,5.28296544153703,0.0,0.0,0.0,0.0,0.0,0.0,0.0,0.0,0.0,0.0,0.0,0.0,0.0,0.0,0.0,1900.8375010467018,1128.9544587096761,1510.20452099829,1511.4365848100897,1755.9568969947609,1438.5382445198163,1530.4470512716648,1496.0453286008953,27.4495645091401,8.480067826056368,4.3003149076327425,0.18699105168186247
8,0.09,-6.203184921590826,3.754955635366093,0.4960828147921526,0.9612401252271813,0.22314762797551654,0.16192315038535182,0.001857727487029055,0.1541099006508094,-0.20558578000115776,0.2560186773878887,8.259169672378874,4.858242195771428,0.5355636723590351,7.276850147478392,-9.964343513898994,10.242585099822177,0.0,0.0,0.0,0.0,0.0,0.0,0.0,0.0,0.0,0.0,0.0,0.0,0.0,0.0,0.0,1874.2689405892202,1852.762703604588,1681.7174269827467,1867.5902806996796,1942.096116890432,1830.788693494072,1730.1203363276502,1846.564714887101,29.11636482834694,7.634518200555863,3.7407340219101495,0.2925315634450296
9,0.09999999999999999,-6.201230259979927,3.752325215317824,0.49921240718261345,0.947072744528761,0.2631786747929236,0.18379462648484235,0.0031204134819343716,0.24000322399095125,-0.32565191292414203,0.371508985255793,8.328918876536337,4.600220868077654,0.6045023173532249,9.313704493415786,-13.219325183054686,11.616248258074336,0.0,0.0,0.0,0.0,0.0,0.0,0.0,0.0,0.0,0.0,0.0,0.0,0.0,0.0,0.0,1991.5958585863366,1978.0676612713432,1868.4841158661468,1942.910167530791,1996.404545502774,1988.7528068911392,1874.7239261706159,1946.7344722497633,30.572719916640995,6.462067487435445,2.863795797124473,0.4368641185267008
10,0.10999999999999999,-6.198329696338994,3.748348828447306,0.5035149484475705,0.9312398964726084,0.3021411655555257,0.20367551889643434,0.004387971821026241,0.3424580876347871,-0.4738247330692057,0.488029602862778,8.013886091677506,4.199912761048845,0.6685919755318612,10.79444002405544,-15.833058291350344,11.212194388603102,0.0,0.0,0.0,0.0,0.0,0.0,0.0,0.0,0.0,0.0,0.0,0.0,0.0,0.0,0.0,2099.1108987878883,1981.6733736522237,1969.8709375435035,1975.4691457278893,2079.528868558074,2011.9034185421729,1968.7092381109096,1980.6164126779922,32.13898132654605,5.09741933517521,1.8549587494595905,0.5660453727419608
11,0.11999999999999998,-6.194335306831989,3.742764848999626,0.5089494900123335,0.9148230781381107,0.3381978970864519,0.2206553853505533,0.005667365173753633,0.4584239288108072,-0.6468175125308411,0.597278924015626,7.326652475237939,3.5769302188947703,0.723558088734158,12.055100095983374,-18.219700561185046,10.361596380155103,0.0,0.0,0.0,0.0,0.0,0.0,0.0,0.0,0.0,0.0,0.0,0.0,0.0,0.0,0.0,2190.0853432339086,1968.6998719986573,2049.740532597043,2013.6415798787248,2156.198648190399,2014.720744096155,2045.8128497280823,2021.3983846877352,33.42426110487342,4.077369431806594,1.1573316537328762,0.60757394837141
12,0.12999999999999998,-6.189119985541095,3.7353321963877586,0.5154328105199877,0.8991125027729471,0.36992614683211944,0.2338891023328291,0.006873213022436815,0.586413109784316,-0.8433701396279224,0.6977982094334014,6.346719654893202,2.775221013081137,0.7646230435679893,13.183655804604232,-20.504690353787215,9.503910502964285,0.0,0.0,0.0,0.0,0.0,0.0,0.0,0.0,0.0,0.0,0.0,0.0,0.0,0.0,0.0,2271.031420718103,1969.8233246128427,2124.9488171581343,2058.8472509512562,2228.657216515354,2027.1283344146136,2119.0184208907285,2069.583039588171,33.55884107779098,2.674164773993078,0.31398636992373585,0.6504383800536743
13,0.13999999999999999,-6.182574266621195,3.7258267361179627,0.5228748751821907,0.8850505139679359,0.3967973529249046,0.2432578765602161,0.007940650369842987,0.7240105923243497,-1.060766282045855,0.7889036959906947,5.356225476160267,2.0304130169698325,0.7859396429510491,14.023535644513418,-22.43733898368849,8.563356489843853,0.0,0.0,0.0,0.0,0.0,0.0,0.0,0.0,0.0,0.0,0.0,0.0,0.0,0.0,0.0,2310.0333513390087,2013.43396451381,2172.986587684829,2099.162429658113,2273.30099985896,2061.784569036012,2166.7205348381444,2109.4720128183426,32.96465544512966,1.054898845449906,-0.6663558428069823,0.6734304231444089
14,0.15,-6.174628478131407,3.7140776564135773,0.5311650531485539,0.8733440230559507,0.4185988455758046,0.2489317757522724,0.008842787788434617,0.8654191513244193,-1.2905771873836789,0.8669299750768983,4.181097396538308,1.231826308728814,0.7922673485934003,14.191346434999419,-23.35833920053032,7.216125304651433,0.0,0.0,0.0,0.0,0.0,0.0,0.0,0.0,0.0,0.0,0.0,0.0,0.0,0.0,0.0,2329.611280183185,1996.9957053250064,2196.1056279177324,2093.430894280674,2284.390571147022,2051.9508916300806,2183.7583855540624,2107.2265288307835,32.37687632929831,-0.1260944136648452,-1.2510772629422588,0.7008970450946714
15,0.16,-6.165273695969866,3.700006063208932,0.540163519329969,0.8649256261836538,0.4346737947832827,0.25074080545903027,0.00956042767200905,1.0050450636582533,-1.5240469101749228,0.9307058614727447,2.814482021031089,0.34458016150025017,0.7875427316697992,13.847278427767673,-23.46015142434088,5.884644497656466,0.0,0.0,0.0,0.0,0.0,0.0,0.0,0.0,0.0,0.0,0.0,0.0,0.0,0.0,0.0,2332.6384330578317,1948.2632446360615,2193.756202495425,2063.29795708555,2279.6329121307404,2011.5833550683453,2177.857197226052,2078.9151652662276,30.984660982435518,-1.209123780580641,-1.7101352595530335,0.7200766054627535
16,0.17,-6.154542580634283,3.6835993461289607,0.5497428457407093,0.8602113401483883,0.44493154260718554,0.24893669897034984,0.010143597934142556,1.1404104935229995,-1.7571234735110732,0.9838191748944415,1.5374510696775125,-0.39257547531541653,0.7772970949870062,13.35167435277973,-23.29823313351764,5.00872494854121,0.0,0.0,0.0,0.0,0.0,0.0,0.0,0.0,0.0,0.0,0.0,0.0,0.0,0.0,0.0,2298.906965794225,1941.169985798693,2180.444941223571,2044.6597911393133,2254.1415697649113,1992.4116191882201,2164.8854156282405,2060.124261375225,28.53451464907395,-2.158106162102695,-1.907047909988258,0.7303737587686742
17,0.18000000000000002,-6.142494344106162,3.664891308782256,0.5598069908311357,0.8590063453717438,0.44985700338783174,0.24417561138514848,0.010725946051029575,1.2678288026519196,-1.9831049885068481,1.0278112002368482,0.3438112845101367,-1.0034133377328616,0.7687956013286016,12.428253125958966,-22.339028741582776,4.176686384461004,0.0,0.0,0.0,0.0,0.0,0.0,0.0,0.0,0.0,0.0,0.0,0.0,0.0,0.0,0.0,2238.0322900044043,1909.919731010255,2141.346477872615,1998.9975174758229,2196.3168952752726,1954.1497833866415,2123.315028385897,2014.3248725838675,29.09922671585742,-2.8880854458530436,-2.042672915369694,0.7324636153463774
18,0.19000000000000003,-6.129231877830034,3.6439984913681793,0.5702618596554979,0.8609414428953617,0.4498877833147798,0.23716654763722336,0.011525754257628308,1.3825693314202268,-2.1926271641493265,1.061789555557241,-0.7421778919565184,-1.4195938193918756,0.7650920867598264,11.032439534000238,-20.403120008708253,3.1838535657207068,0.0,0.0,0.0,0.0,0.0,0.0,0.0,0.0,0.0,0.0,0.0,0.0,0.0,0.0,0.0,2137.6267442043736,1846.8349667708612,2067.4130211983984,1911.3338340994185,2100.198112130754,1881.488032017663,2044.9519414657111,1927.4447524576015,31.065656856580034,-3.4359911515081687,-2.1160568969287317,0.7283809880289132
19,0.20000000000000004,-6.114857519315475,3.621047580632442,0.5810510551731527,0.8654778864431528,0.4455748329289991,0.22858059161567176,0.012728294261887933,1.4918846256964073,-2.3976068920642417,1.0970593561602588,-1.6703349411087918,-1.7088101454882603,0.7669618110173612,10.794500692530073,-20.461611593868945,3.787986407215671,0.0,0.0,0.0,0.0,0.0,0.0,0.0,0.0,0.0,0.0,0.0,0.0,0.0,0.0,0.0,2127.039840522418,1890.3463738803875,2077.8272098477173,1931.3884296788362,2100.7755998695393,1921.923168430759,2061.7716142160643,1950.2271296288245,30.63564512956095,-3.813209536595273,-2.0611872785151286,0.7204192893775457
20,0.21000000000000005,-6.099385331107917,3.5960139521078514,0.5922495284713446,0.8720235088829515,0.4375645901190829,0.21887280343907783,0.014384899864192106,1.6029111820411477,-2.610534167765934,1.1451244944697445,-2.4324154773132007,-1.8990709633706484,0.7735326567989077,11.102687699465097,-21.487549772967185,5.374883380349527,0.0,0.0,0.0,0.0,0.0,0.0,0.0,0.0,0.0,0.0,0.0,0.0,0.0,0.0,0.0,2165.9748967934147,1984.7528869703776,2131.331801650181,2005.9178558534534,2148.8393588915437,2010.8530611409994,2120.3825826718394,2023.9569720092388,30.225131901108288,-4.014549081714836,-1.9164848358256055,0.7128118630037624
21,0.22000000000000006,-6.0828133522631225,3.5688503698795295,0.603979979828701,0.879970795287916,0.4265159321386033,0.20847627298030075,0.016528843774873982,1.7105212067367177,-2.820916874153726,1.2020702375372316,-3.0269958962121826,-1.974789359659369,0.7830360570209676,10.515794125575573,-20.718153043790988,6.019899879442292,0.0,0.0,0.0,0.0,0.0,0.0,0.0,0.0,0.0,0.0,0.0,0.0,0.0,0.0,0.0,2133.2035327515646,2001.463932814338,2111.6852207753022,2001.6751609344642,2119.2779372360205,2015.851111988277,2098.5195234055327,2013.9173053198147,30.399111049997575,-4.068970656525591,-1.7256154749807644,0.7060913223332413
22,0.23000000000000007,-6.065195837703635,3.5396261311539385,0.6163118763717741,0.8887226630418872,0.4131098195757766,0.1978483406988971,0.01919216633157878,1.81198421033149,-3.0223975334467803,1.2654621566556878,-3.4502801292575325,-1.9487697857805641,0.793543506713569,9.89654766772552,-19.764885775392038,6.681155035132447,0.0,0.0,0.0,0.0,0.0,0.0,0.0,0.0,0.0,0.0,0.0,0.0,0.0,0.0,0.0,2097.419228957456,2014.6472899991554,2087.8463002077688,1995.092423481215,2089.8602307911474,2021.7570445494412,2076.4650644137187,2004.974698450543,30.545844800076242,-4.005526679917749,-1.4801836206960985,0.6997074047110386
23,0.24000000000000007,-6.0465885209720165,3.508424944492333,0.6293205547158846,0.897752708821566,0.39803042471442823,0.18738087875276338,0.022366517007227697,1.9087980935947442,-3.216739210694456,1.337945656571979,-3.7133939428905967,-1.847269194640968,0.8032509700875532,9.491930035179674,-19.118881182129677,7.690095334352609,0.0,0.0,0.0,0.0,0.0,0.0,0.0,0.0,0.0,0.0,0.0,0.0,0.0,0.0,0.0,2082.197730307431,2043.561479816067,2081.4242955418867,2008.6843578805306,2081.0784685565045,2045.796889632802,2073.3977127465005,2016.9589060213834,30.55551541400677,-3.8132543781798116,-1.205601251302173,0.6956635749125415
24,0.25000000000000006,-6.0270329815310975,3.475314134786376,0.6431049390015311,0.9066350987323766,0.38191938889069754,0.17740730309126285,0.026019741462490757,2.0016580357760314,-3.404194442483724,1.4206046688227538,-3.8349754889905907,-1.6790082116771619,0.81061347850778,9.105422799597473,-18.39755287489897,8.704918157423469,0.0,0.0,0.0,0.0,0.0,0.0,0.0,0.0,0.0,0.0,0.0,0.0,0.0,0.0,0.0,2069.361272645849,2069.1762081146217,2076.019459051157,2021.5569891979524,2073.1069432520594,2066.4028640647884,2070.0261283367604,2027.7984301550125,30.532086388299934,-3.521982424117514,-0.9157195608314614,0.6952321702911519
25,0.26000000000000006,-6.006568977943804,3.440368585785725,0.6577637123155204,0.9150350282755249,0.36538668470144403,0.16821776796374716,0.030103989984585067,2.0904770267171258,-3.5834772097899927,1.5126335860880558,-3.820331074375003,-1.461732686574261,0.8146837732930436,8.703953588150792,-17.53682731759909,9.59823085025846,0.0,0.0,0.0,0.0,0.0,0.0,0.0,0.0,0.0,0.0,0.0,0.0,0.0,0.0,0.0,2053.3816421941065,2087.827324210266,2065.997811272696,2031.1167619107537,2061.3698829625628,2080.3356420650125,2062.3169013813354,2034.6856254668594,30.504208933537196,-3.1586399355200134,-0.6115714756880672,0.6959132072705513
26,0.2700000000000001,-5.985236499317558,3.4036745135643334,0.6733853857110029,0.922703146389097,0.3490162203640677,0.16003999036742658,0.03455116567693655,2.1754052023977035,-3.7538359559665997,1.613025028610178,-3.686106356213865,-1.2108870727188472,0.8152085595951549,8.33105850718896,-16.63223904416311,10.392908182498495,0.0,0.0,0.0,0.0,0.0,0.0,0.0,0.0,0.0,0.0,0.0,0.0,0.0,0.0,0.0,2038.109069493868,2101.7074997619193,2055.6031767815434,2039.7100363983927,2049.6200137114383,2090.6007458110244,2054.2406600913287,2040.9968709613001,30.43678854258582,-2.7488174667687533,-0.31425092235708857,0.6936328801334897
27,0.2800000000000001,-5.963072514826865,3.3653221346739217,0.690048824332597,0.9294768852767699,0.33332199741965546,0.15305335578055537,0.039291679229530974,2.256861450147005,-3.9151534272517132,1.720823294319798,-3.4530667313578047,-0.9350606004335534,0.8122809272292231,8.007088841114562,-15.73410343040127,11.089071016738838,0.0,0.0,0.0,0.0,0.0,0.0,0.0,0.0,0.0,0.0,0.0,0.0,0.0,0.0,0.0,2024.8974880510632,2112.1483973327504,2046.6688996496591,2047.2313575227017,2039.2705200737757,2098.250210321329,2047.2266412361992,2046.7605374425323,30.325415805523097,-2.3244713169609668,-0.014853074547144629,0.6872287919335655
28,0.2900000000000001,-5.940109399833625,3.3254015570194384,0.7078222408880742,0.935271035002769,0.3187273011541569,0.1473847038435967,0.044257741207297294,2.3353134225194196,-4.067505282458311,1.834802325085712,-3.1440310336570207,-0.6492722294159241,0.8060140050692216,7.730605682828795,-14.84963278558471,11.651173222480882,0.0,0.0,0.0,0.0,0.0,0.0,0.0,0.0,0.0,0.0,0.0,0.0,0.0,0.0,0.0,2013.643421295116,2118.022424114455,2037.6362777115144,2052.3342280339325,2029.8154129434265,2102.275825372917,2039.822579134761,2050.2704679511558,30.199095694283557,-1.871904073481931,0.2744320528924741,0.6780886669734378
29,0.3000000000000001,-5.9163747368490505,3.2840013673592403,0.7267604393539818,0.9400643248902486,0.3055443533781304,0.14311673395337687,0.04938940827646843,2.411261839381668,-4.211137281644151,1.9535449070088027,-2.785843989878505,-0.3566357293770354,0.7966401285077005,7.506692646467972,-13.99813817591955,12.06826423446472,0.0,0.0,0.0,0.0,0.0,0.0,0.0,0.0,0.0,0.0,0.0,0.0,0.0,0.0,0.0,2004.0099291714253,2119.6064604135204,2029.2638005362587,2053.6236749578834,2021.2127819707373,2102.7145145764835,2032.3024879882628,2050.7027039254126,30.039587149811865,-1.4100555310656806,0.5349000567239321,0.6684779028263992
30,0.3100000000000001,-5.891890588209017,3.2412063190667273,0.7469043543845,0.943871908576554,0.2940004989113128,0.14030160961620425,0.05463501788280774,2.4853215422353325,-4.346588789215504,2.075740975378021,-2.387194331011719,-0.06526627694245431,0.7846691097226387,7.348524625157005,-13.211912824463212,12.36020814090022,0.0,0.0,0.0,0.0,0.0,0.0,0.0,0.0,0.0,0.0,0.0,0.0,0.0,0.0,0.0,1995.3220343762582,2119.187017122747,2020.7019805812422,2053.958443857311,2013.3885427821535,2101.399629991116,2024.8362952460832,2050.027319763292,29.848288142609846,-0.9620672310150861,0.7779564214680035,0.6581029932521707
31,0.3200000000000001,-5.866672633790987,3.197094915564054,0.768281964617192,0.946727562803681,0.2842721911170415,0.13893715528283293,0.059939219774973344,2.5581290789294826,-4.474528312300613,2.2000654079256003,-1.961851537552158,0.21181380748893355,0.7709479827974121,7.253031119504261,-12.495533009934334,12.51764664048638,0.0,0.0,0.0,0.0,0.0,0.0,0.0,0.0,0.0,0.0,0.0,0.0,0.0,0.0,0.0,1987.658456178422,2115.4015826042555,2011.5248334354776,2052.953634562838,2005.7700172783534,2097.408869606083,2016.683005681842,2048.0115242029283,29.629245762346578,-0.5390881216261637,0.9929068100029149,0.6436297916282668
32,0.3300000000000001,-5.840730284171459,3.151738580690159,0.790907923433343,0.9486814349076143,0.2764597070434353,0.1389806280471032,0.06525297288799031,2.630304378301572,-4.595708640806557,2.3252013098393864,-1.5274695942767649,0.4736482565005233,0.756372830709136,7.218892771098773,-11.857615913554831,12.546010772835015,0.0,0.0,0.0,0.0,0.0,0.0,0.0,0.0,0.0,0.0,0.0,0.0,0.0,0.0,0.0,1980.8497908866464,2108.618858383228,2002.832405147156,2049.3658626487813,1998.5438499470135,2090.866139773086,2008.4029513200057,2043.9600604883565,29.367807311856538,-0.16725675608294516,1.1918573704752977,0.6256497876032712
33,0.34000000000000014,-5.814066818578692,3.105200845833683,0.8147841182739914,0.9497934959567761,0.2705824652667047,0.14036333638117757,0.0705377794401169,2.7024516547688617,-4.7109485177373385,2.4499198441188095,-1.0987167447493504,0.7139377046248044,0.7414227594449971,7.243743820882109,-11.302788733557279,12.45570009327146,0.0,0.0,0.0,0.0,0.0,0.0,0.0,0.0,0.0,0.0,0.0,0.0,0.0,0.0,0.0,1975.3409582148563,2099.36867793037,1993.9332336925625,2043.394754342662,1992.0968834837706,2082.3698834292295,1999.706201293616,2037.6852927301097,29.118715636716832,0.16954392908418175,1.374881273153308,0.6054408156403012
34,0.35000000000000014,-5.786679796323578,3.0575371806569023,0.8399002911939514,0.9501308045475892,0.26657438852103876,0.1429996794632661,0.07576701992152052,2.775099970527037,-4.821019381995306,2.5730026027152673,-0.6954862206738317,0.935595087171819,0.7263534237928096,7.3180205163922984,-10.82135339147694,12.244591298145924,0.0,0.0,0.0,0.0,0.0,0.0,0.0,0.0,0.0,0.0,0.0,0.0,0.0,0.0,0.0,1970.5827328387313,2087.207959200502,1985.375200677651,2033.5660844752965,1985.8927635197458,2071.3753649227265,1990.5867177664354,2028.2257213237178,28.863150885312393,0.47446383092874067,1.518065589031654,0.5867182602129288
35,0.36000000000000015,-5.758561406042805,3.008795037767833,0.8662354241699478,0.9497583530148758,0.2643069251413221,0.14680525068182312,0.08092674819277924,2.8488232047579958,-4.926791847155764,2.693594453350108,-0.3214875661016424,1.1397165924244756,0.7113707298130199,7.451525546560589,-10.430045765108531,11.963446267728717,0.0,0.0,0.0,0.0,0.0,0.0,0.0,0.0,0.0,0.0,0.0,0.0,0.0,0.0,0.0,1966.736749411457,2075.172089633978,1977.5173976782576,2023.1951052524917,1980.813578041039,2060.486202629948,1982.3134860571538,2018.2581966971272,28.607243084370243,0.733564476182628,1.6428801021316584,0.5695326301418623
36,0.37000000000000016,-5.729698195243357,2.9590132854176856,0.8937609409505424,0.9487331665787301,0.26364078472632324,0.1516672702388785,0.08599973488721478,2.9241425511496724,-5.029062832521,2.810957995494467,0.022134526340511055,1.3153563126936432,0.6968715975969515,7.632309932116499,-10.112372720511686,11.608932027761032,0.0,0.0,0.0,0.0,0.0,0.0,0.0,0.0,0.0,0.0,0.0,0.0,0.0,0.0,0.0,1963.4139445335366,2062.0020118850584,1968.9437646286915,2013.2320830666433,1975.8549539290404,2048.773849659265,1973.6958440911417,2008.3000257081812,28.356099153031643,0.9568151366384061,1.7437144287255388,0.5496595345486351
37,0.38000000000000017,-5.70007197452927,2.9082233788904985,0.9224411683025662,0.9471088713021094,0.26441863961098666,0.15745449403310863,0.09097060643909842,3.0014916367436695,-5.128531059140779,2.924434911369326,0.3285684852268773,1.4678851798996593,0.6832215145710478,7.853159772214013,-9.860646964564346,11.193317840786143,0.0,0.0,0.0,0.0,0.0,0.0,0.0,0.0,0.0,0.0,0.0,0.0,0.0,0.0,0.0,1960.4319999374839,2048.2156274885074,1961.3220439759743,2002.3697108404601,1971.2279473935155,2036.5017115719818,1965.5284235210277,1997.9270882636954,28.09387112945623,1.1207986474889575,1.8261490314697724,0.528072819575879
38,0.3900000000000002,-5.669660555097572,2.856450198532844,0.9522344598464725,0.9449350817018196,0.2664663526427387,0.16404197554473127,0.09583112509948366,3.081237635946476,-5.2258115403109064,3.0334881785910666,0.5986571913601767,1.5965345197041776,0.6702725094156574,8.107540381336431,-9.666333019269224,10.728502161311049,0.0,0.0,0.0,0.0,0.0,0.0,0.0,0.0,0.0,0.0,0.0,0.0,0.0,0.0,0.0,1957.8651574897376,2034.8558005653097,1953.5291685580466,1991.2625415618945,1967.117591524133,2024.6236853849427,1957.3231566438724,1987.1700361554372,27.883401059168058,1.23429552342578,1.8995637636743912,0.5050833834203816
39,0.4000000000000002,-5.6384386044541,2.8037131631116687,0.9830939311675472,0.9422634596381907,0.26958866251984287,0.1713054703769496,0.10057813624422714,3.163631700493095,-5.321366656674333,3.1375840547237708,0.8221770428570581,1.7039461017507747,0.6576974831528607,8.381932271513293,-9.511097292706161,10.210688171935267,0.0,0.0,0.0,0.0,0.0,0.0,0.0,0.0,0.0,0.0,0.0,0.0,0.0,0.0,0.0,1955.9719847834326,2020.47462604632,1946.3117975532512,1978.3340970408715,1963.3010534538723,2012.02418017836,1949.1824234630144,1975.061738675487,27.69201968964266,1.3132382823969801,1.936214796419477,0.4849093366061121
40,0.4100000000000002,-5.606378157963261,2.750027020819516,1.0149688652801325,0.9391507813954507,0.27355992466996887,0.17913568757482656,0.10521968853769542,3.248991892102225,-5.415717267879429,3.236575549635366,0.9977248532755931,1.7958772845626012,0.6451532718987669,8.691329628617073,-9.409895446568228,9.694307622078568,0.0,0.0,0.0,0.0,0.0,0.0,0.0,0.0,0.0,0.0,0.0,0.0,0.0,0.0,0.0,1955.7469576421165,2008.031831406382,1941.3227152624738,1966.2268541005178,1961.4786556882455,2001.2604184969994,1943.2592259133428,1964.0220878100322,27.493799220373106,1.330114064195934,1.9788449913994524,0.46947073274696793
41,0.4200000000000002,-5.573448194446473,2.6954017166343136,1.0478077938075014,0.9356559802792941,0.2781686264021714,0.18741094702778613,0.1097599143005822,3.337564162154343,-5.509245884566841,3.3303570979370116,1.1312934154961014,1.8616717366806583,0.6326183992357194,9.019311931668383,-9.338671278269928,9.164591462676341,0.0,0.0,0.0,0.0,0.0,0.0,0.0,0.0,0.0,0.0,0.0,0.0,0.0,0.0,0.0,1956.0344618933866,1995.926397790928,1936.0902826123506,1956.2439032277266,1959.9742290756276,1990.9076967480278,1937.72724826788,1954.428533809417,27.31068698491272,1.3378898615483654,2.009733720473303,0.45180649064930434
42,0.4300000000000002,-5.539616110137262,2.6398445236751034,1.0815575012636602,0.9318421674912208,0.2831993410784155,0.19602047999862543,0.11421155597890882,3.4294193940205626,-5.6021063006836265,3.4186894598878896,1.2137812399038843,1.9173990317897267,0.6203286987871988,9.348948247928313,-9.274562933684116,8.609172391370823,0.0,0.0,0.0,0.0,0.0,0.0,0.0,0.0,0.0,0.0,0.0,0.0,0.0,0.0,0.0,1955.5819531648126,1983.2066031843367,1932.9364609790578,1944.6306056556668,1957.8274250175323,1979.7721419672623,1933.1982192998275,1944.186157029769,27.131833850179355,1.315994132116431,2.0204546424272913,0.4319335629943522
43,0.4400000000000002,-5.504848846612536,2.5833617122994883,1.1161627939416985,0.9277657883703244,0.28845519349876325,0.20488807091768113,0.11859646566745868,3.5246081657963293,-5.694378997119668,3.5014660871362633,1.2642003320101975,1.9614286055915522,0.6080127334749708,9.683949664396785,-9.217196788573467,8.050143141430599,0.0,0.0,0.0,0.0,0.0,0.0,0.0,0.0,0.0,0.0,0.0,0.0,0.0,0.0,0.0,1953.9206733848016,1972.9839545613743,1928.379795981093,1934.9527056699847,1955.271615125311,1970.4834744475784,1928.2658013714993,1934.916469597633,27.019113933432525,1.238121991523376,2.038312121810259,0.4098065619206034
44,0.45000000000000023,-5.469112986728564,2.525959070344272,1.1515678403819447,0.9234768559943157,0.29379271586476813,0.21393041130384463,0.12292321044874022,3.6231338155763706,-5.786065164560017,3.5786315177279224,1.2830276167273134,1.989729886124,0.5952112880945769,10.016175036296815,-9.156036658982458,7.486340523629842,0.0,0.0,0.0,0.0,0.0,0.0,0.0,0.0,0.0,0.0,0.0,0.0,0.0,0.0,0.0,1952.7103214458925,1962.9631218668117,1923.3032273908693,1925.6968677805291,1952.789584433913,1961.7247930875435,1922.7837327241143,1926.089724644005,26.926673136309045,1.1285281817688426,2.033318431852623,0.39076421101111797
45,0.46000000000000024,-5.432374586805767,2.4676419483806296,1.1877176304136163,0.9190353966714182,0.2990441468112231,0.22307781187810094,0.12721174383929798,3.725147212433953,-5.877298079239176,3.650478279066202,1.2595551518267378,2.0135755641826085,0.5814707659539311,10.370003419144513,-9.11266882414008,6.966042621215696,0.0,0.0,0.0,0.0,0.0,0.0,0.0,0.0,0.0,0.0,0.0,0.0,0.0,0.0,0.0,1954.2749851322367,1954.8962371082744,1922.1931713720185,1916.6813481276624,1953.112102307635,1955.0910712769164,1920.5096026243052,1918.51034233972,26.80627099927351,0.9639275373642753,2.052120078674478,0.37625051658987957
46,0.47000000000000025,-5.3945982199274605,2.408414695913813,1.2245604075206855,0.9145119147306795,0.3040279071949508,0.2322620867709982,0.13148883036618023,3.830727716651455,-5.968073576410525,3.7172590675620882,1.1988420799132935,2.0234470922174808,0.5668021278654806,10.725522195433879,-9.060474794265971,6.465869674841418,0.0,0.0,0.0,0.0,0.0,0.0,0.0,0.0,0.0,0.0,0.0,0.0,0.0,0.0,0.0,1956.3257896458128,1947.1422226492905,1921.3636402030602,1909.7372959560414,1953.787690702483,1948.7248751531629,1919.1769684317082,1912.2425075804645,26.69243250507365,0.8260616679006638,2.0705462368407437,0.35849300431934694
47,0.48000000000000026,-5.355748881536602,2.348283140586477,1.2620456576294405,0.9099784084120285,0.30855799546438745,0.2414354971544123,0.13579455207302046,3.9397042001418185,-6.05809469191737,3.7789667734445223,1.0927523495299332,2.0381348970658317,0.551516582515737,11.056850168292165,-8.968768230646518,5.959459515670229,0.0,0.0,0.0,0.0,0.0,0.0,0.0,0.0,0.0,0.0,0.0,0.0,0.0,0.0,0.0,1956.5523406100665,1938.331409914143,1922.0549848625126,1900.41035346387,1952.83401118944,1940.9441413142595,1918.2415164627173,1904.5685811850365,26.57971256771549,0.6959427970124896,2.065480961414628,0.3382429295649672
48,0.49000000000000027,-5.315793381945727,2.2872565038252777,1.3001231094103856,0.9054840996230727,0.3124974230487327,0.25059133584165816,0.14017092536895095,4.0519445670104375,-6.147038926629379,3.8357333836041567,0.9736396333633786,2.054215079935,0.5354245707612579,11.379032596387617,-8.846959162043255,5.474007396337743,0.0,0.0,0.0,0.0,0.0,0.0,0.0,0.0,0.0,0.0,0.0,0.0,0.0,0.0,0.0,1954.0339292572062,1933.0631289419468,1919.546827233125,1894.227123821741,1950.3957857455928,1935.5948918341198,1915.729631730586,1898.4312135739563,26.539855835152856,0.5003016067319689,2.085368610355774,0.31396793485920016
49,0.5000000000000002,-5.274699597142838,2.225347125901572,1.3387443661543637,0.9010553348820912,0.3158135332723713,0.25970244180729224,0.14462274164830846,4.167341564705875,-6.234589556420435,3.8877617359119325,0.8497630603957639,2.0598114191766417,0.5182457498529536,11.689400988551313,-8.69320307665511,5.0091906031815014,0.0,0.0,0.0,0.0,0.0,0.0,0.0,0.0,0.0,0.0,0.0,0.0,0.0,0.0,0.0,1951.5014473853505,1928.1860596483375,1914.9786262856069,1889.8950388373878,1947.4839520478383,1931.072932492929,1911.5563653283737,1893.7383797805505,26.51175698609049,0.28146429927957517,2.108060785110074,0.29364104681013736
50,0.5100000000000002,-5.232435484890331,2.1625695823965536,1.3778643993257391,0.8967299404943857,0.3184300580350715,0.2687484202334406,0.14917103801591824,4.286047398618908,-6.32066413745473,3.9355930943471766,0.6940939247531674,2.072691896988211,0.4995599988053712,12.025939156362853,-8.538797772170703,4.61214591544401,0.0,0.0,0.0,0.0,0.0,0.0,0.0,0.0,0.0,0.0,0.0,0.0,0.0,0.0,0.0,1953.3313517558959,1924.4006966103434,1916.4496751504669,1883.961318957133,1948.4983077925626,1928.3355865552876,1911.6399852655907,1889.5507574988458,26.430098266720016,0.033101867963980236,2.1723481066369916,0.27817949539219566
51,0.5200000000000002,-5.188967434595556,2.0989395409574136,1.4174436685371425,0.8925562975413923,0.32020855219527244,0.27773199007463845,0.1538657873258054,4.408125047945064,-6.405032178514346,3.9796665941149363,0.5113183631143783,2.089790593791571,0.47954161917326343,12.361080655796108,-8.35156046964336,4.2509634774652305,0.0,0.0,0.0,0.0,0.0,0.0,0.0,0.0,0.0,0.0,0.0,0.0,0.0,0.0,0.0,1954.8977497878948,1920.9175821720996,1918.7350105297662,1879.2932018918027,1949.442706733335,1925.4420608960513,1913.1547009589765,1885.8612472216867,26.33307227808728,-0.1765525921710582,2.2557873213864674,0.2589579218073881
52,0.5300000000000002,-5.144262899130246,2.034476727265554,1.4574452523728825,0.8885659108387508,0.32101588306800516,0.28669013857671055,0.1587708706162333,4.533287418691476,-6.487106720553816,4.0200605972963555,0.29999463734212706,2.1294546485986565,0.45869159966027145,12.658120268148387,-8.094543268788001,3.8883501794213515,0.0,0.0,0.0,0.0,0.0,0.0,0.0,0.0,0.0,0.0,0.0,0.0,0.0,0.0,0.0,1952.9599855264476,1916.1888661847674,1921.0332476657463,1872.0574696678827,1947.274540491135,1920.6720371035283,1913.8944224169968,1880.1819809470342,26.23232334181855,-0.34728238578273496,2.3021569720775767,0.23661367254865914
53,0.5400000000000003,-5.098292329152031,1.9692071889354616,1.4978329701963224,0.8847520005369207,0.32077403545864674,0.2957021526286098,0.16394557832493623,4.661307417201209,-6.566282683288016,4.0569304022024015,0.09009336843916646,2.189205313060171,0.4368913448869815,12.938915439097975,-7.780084338944171,3.5469430276080516,0.0,0.0,0.0,0.0,0.0,0.0,0.0,0.0,0.0,0.0,0.0,0.0,0.0,0.0,0.0,1947.6500081395095,1914.1561960610413,1919.5317821066476,1866.9508908429968,1942.8457030957957,1917.6414012556215,1912.2503385343546,1875.1930682699128,26.216283584366025,-0.5957986760426859,2.3873589615476845,0.20857687807089048
54,0.5500000000000003,-5.051027696030271,1.9031625898057227,1.538572829797902,0.8810860439851763,0.31952084336523195,0.3047969406205328,0.1693890159900761,4.792087390054733,-6.642037125431525,4.0905331417580015,-0.10255915098292033,2.2414716140291158,0.41389601873575477,13.211900790705222,-7.416349369090192,3.232215985129905,0.0,0.0,0.0,0.0,0.0,0.0,0.0,0.0,0.0,0.0,0.0,0.0,0.0,0.0,0.0,1942.4981580143842,1912.0286889019078,1913.9209201058766,1865.3312529733828,1937.9473525083192,1915.1947132301102,1907.770790829192,1872.4031592727747,26.233334005938904,-0.7963006423821422,2.4928202304149742,0.181514487552425
55,0.5600000000000003,-5.002440266220703,1.8363784617929226,1.5796348969797334,0.87755888194619,0.31723750375756854,0.3139838279500902,0.17511405058654747,4.925936636154032,-6.714161729933279,4.121489841116739,-0.3204737411092598,2.3100597172382615,0.3891464390406957,13.531674097617241,-7.040975544389205,2.9934640982762772,0.0,0.0,0.0,0.0,0.0,0.0,0.0,0.0,0.0,0.0,0.0,0.0,0.0,0.0,0.0,1943.538550382338,1910.2553398866733,1916.2946922934589,1860.57865108633,1938.4234179834168,1914.2540542969177,1908.5363850635836,1869.7113073349096,26.18461287226952,-0.9462116382422779,2.6781065872996086,0.16061443533530523
56,0.5700000000000003,-4.952497671016028,1.768892392020418,1.620995768464462,0.874149177219886,0.3138613939839742,0.32331885451135467,0.18116059077431304,5.063153561468899,-6.782358695558424,4.150367652330551,-0.5296898530231765,2.395686641724578,0.3625796143996274,13.87467173703083,-6.628168792303768,2.802497329541964,0.0,0.0,0.0,0.0,0.0,0.0,0.0,0.0,0.0,0.0,0.0,0.0,0.0,0.0,0.0,1942.1945380692432,1912.9840753310575,1917.5177252651697,1860.2130459720663,1938.2004650686677,1915.8507947686173,1910.0065352714187,1869.338050297774,26.089845127803056,-1.168194342253074,2.8737077507390247,0.13705852740328459
57,0.5800000000000003,-4.901166907271173,1.7007467863601575,1.6626352419291572,0.8707585559433112,0.30943363878530566,0.3329493947874145,0.18755015582584506,5.203516858776259,-6.845940474186007,4.177188285654203,-0.7129054518056486,2.52892375271603,0.3348938631624745,14.180418018979069,-6.135175086249944,2.594607747817612,0.0,0.0,0.0,0.0,0.0,0.0,0.0,0.0,0.0,0.0,0.0,0.0,0.0,0.0,0.0,1933.8052819127029,1916.938434757228,1917.2546892223338,1858.3315960689329,1932.0782591827594,1917.1492856224268,1909.224242412017,1867.9054960755707,25.891163775749412,-1.3637318387038129,2.999704179706328,0.10998581711087864
58,0.5900000000000003,-4.84841807476941,1.6319916268789145,1.7045319580372371,0.8672893368813244,0.30393292687548684,0.3430298193731264,0.19433096797395166,5.346732806111761,-6.904147567522696,4.201797896811181,-0.9140170437389858,2.6903029042357662,0.3060320306912691,14.460538519359467,-5.5665702376863635,2.371845378806192,0.0,0.0,0.0,0.0,0.0,0.0,0.0,0.0,0.0,0.0,0.0,0.0,0.0,0.0,0.0,1929.1102677234562,1913.9782172322077,1918.5672436403502,1851.0425389451013,1926.8425215195114,1914.5090738956842,1908.8165299358036,1862.3414052082428,25.545570354155014,-1.6216074267253682,3.1524490022947558,0.0754344220929113
59,0.6000000000000003,-4.794225047822866,1.5626850419236507,1.746662213267294,0.8637133295251471,0.29730438672481785,0.3535530517544675,0.2015183009800046,5.492255200908864,-6.956074422505191,4.223831934636395,-1.111823550163133,2.833351619481346,0.275576528216277,14.67261235270989,-4.902669705304952,2.1040684908770757,0.0,0.0,0.0,0.0,0.0,0.0,0.0,0.0,0.0,0.0,0.0,0.0,0.0,0.0,0.0,1922.6505362198243,1905.823347954323,1910.8186964113129,1845.1877143163076,1919.5771867577773,1906.7323080415172,1902.081181744802,1855.0742845015704,25.565832303622887,-1.8758796855052249,3.3021241440422533,0.0402149500850586
60,0.6100000000000003,-4.738569411078927,1.4928948782219662,1.788997268824896,0.8600212776959721,0.2894922021679353,0.36445826236970796,0.20911203165910855,5.639093460308871,-7.000701032360383,4.242663457668712,-1.33645176571682,2.9821255819079497,0.24268145227885737,14.77385039898671,-4.134590641188041,1.7685046923974213,0.0,0.0,0.0,0.0,0.0,0.0,0.0,0.0,0.0,0.0,0.0,0.0,0.0,0.0,0.0,1913.193765380617,1891.0959015079486,1901.0625557174549,1829.2188349129347,1908.9365543822587,1892.5886949047247,1890.7249914855338,1840.355465305058,25.836446296324795,-2.1233508031243016,3.4988408963333106,0.0110973379522307
61,0.6200000000000003,-4.681433203008539,1.4226944557507757,1.8315097168454635,0.8561966167388081,0.28039011332849584,0.3757122417336761,0.21713831823081722,5.7887321922322,-7.038195010327639,4.259614155119906,-1.5732086707816095,3.1310116823417284,0.20696434917539233,15.121007211676307,-3.423897013620447,1.6382215832662084,0.0,0.0,0.0,0.0,0.0,0.0,0.0,0.0,0.0,0.0,0.0,0.0,0.0,0.0,0.0,1914.7716762226341,1889.827059484614,1902.7430753063388,1827.58414270791,1910.8941992640882,1892.055903639477,1892.8776808818984,1839.7160367643464,25.85611068097481,-2.4086529846453963,3.7630984160994525,-0.01747779411822317
62,0.6300000000000003,-4.622777573793506,1.352153742111892,1.8741894916363078,0.8521800383940561,0.26993267914641533,0.38732933306601874,0.22561364905115308,5.943261857085335,-7.0687393163940175,4.276346229923576,-1.8142845898888316,3.303122745566177,0.16886265848888296,15.662924273386558,-2.7130339110694734,1.6571181654505551,0.0,0.0,0.0,0.0,0.0,0.0,0.0,0.0,0.0,0.0,0.0,0.0,0.0,0.0,0.0,1922.2744635968224,1899.5208727903866,1915.0731574108902,1835.8887989030948,1919.564082682155,1901.3229861604455,1905.0490357647818,1849.3949058760427,25.761236906917837,-2.6687519794558487,3.9778716295761307,-0.04922927981307641
63,0.6400000000000003,-4.562554535832808,1.2813467850985039,1.9170339640514824,0.8478628804837702,0.2580144442894903,0.39940621271254073,0.2345884900892926,6.101956404776413,-7.091199013700525,4.292372067103223,-2.0747544524058625,3.519041625334288,0.12835762790737804,16.031035880165412,-1.8468555740813741,1.552702802070094,0.0,0.0,0.0,0.0,0.0,0.0,0.0,0.0,0.0,0.0,0.0,0.0,0.0,0.0,0.0,1921.0733857051591,1900.7864558075312,1922.576831768366,1832.6314426613137,1918.4814905334463,1901.4743933650266,1910.222682129827,1847.9781556247349,25.762362979437516,-2.8081966271943504,4.120671394030816,-0.08516504151031268
64,0.6500000000000004,-4.5007290323839175,1.210361113594872,1.9600315255402856,0.8431454291822257,0.2445477270135312,0.4119764444538045,0.24408523854759692,6.263600696803175,-7.104294055372733,4.306863134025873,-2.334173980017712,3.732604994971236,0.08506386957449172,16.29549178868661,-0.8635119057531782,1.37977948126089,0.0,0.0,0.0,0.0,0.0,0.0,0.0,0.0,0.0,0.0,0.0,0.0,0.0,0.0,0.0,1916.5941455063928,1896.655773222622,1920.9336094417845,1829.9114761616704,1913.5882015438747,1897.180860752327,1909.0778538474472,1844.3874626400807,25.813840699014293,-2.914435925086204,4.203783144949763,-0.12364497395679011
65,0.6600000000000004,-4.437272156117333,1.1392946824478454,2.003166561519486,0.8379552805499524,0.2296466123239562,0.4249463106057761,0.2539960912083507,6.428301098395421,-7.107243515814183,4.319916047298169,-2.539926204966593,3.912238182949368,0.03900622052383573,16.611091039139936,0.18177695559895568,1.2428553336736314,0.0,0.0,0.0,0.0,0.0,0.0,0.0,0.0,0.0,0.0,0.0,0.0,0.0,0.0,0.0,1912.675558209957,1898.4744372405003,1914.0565005519597,1838.9316911683536,1910.743942076448,1898.1149175198595,1905.7914335661821,1849.935175480298,25.659807886052654,-3.0031643659338108,4.280976189755048,-0.15823301768225018
66,0.6700000000000004,-4.372151685648161,1.0682521761798924,2.0464257617208816,0.8322488682819289,0.2135540439233036,0.4381625760608553,0.2641402061541702,6.596336752658073,-7.0994044001304015,4.331703803402323,-2.7024415475103813,4.046788199553004,-0.00926156602508217,16.94336927855833,1.2891016632750052,1.1147664827930726,0.0,0.0,0.0,0.0,0.0,0.0,0.0,0.0,0.0,0.0,0.0,0.0,0.0,0.0,0.0,1912.5466175525464,1900.3140031935739,1908.5751817151674,1850.2487605171195,1910.484347164976,1900.1823548168954,1902.8857105689826,1858.778202225767,25.970894582603872,-3.085247805426289,4.411617341773191,-0.19097732599070455
67,0.6800000000000004,-4.3053395628781335,0.997345227763932,2.0897931011713253,0.8260055571973577,0.1964640427163215,0.45148310651878976,0.27437147068670487,6.7663322553932685,-7.080014193242697,4.341358331242416,-2.8324277522947083,4.15565124210922,-0.05870208267499378,17.077994890262183,2.4718895156707887,0.8635967556784863,0.0,0.0,0.0,0.0,0.0,0.0,0.0,0.0,0.0,0.0,0.0,0.0,0.0,0.0,0.0,1904.9321386282295,1894.50365106406,1899.059188724987,1852.2198191548155,1902.696179440099,1893.7198917849016,1894.3201572635458,1859.099077829024,26.79347031632052,-3.1096096042546404,4.4742683140357755,-0.2264149469264768
68,0.6900000000000004,-4.236811015118055,0.9266912493803916,2.1332502527680868,0.8191659688128013,0.1784911174276921,0.4648755334421371,0.2846028372052656,6.940092435892082,-7.04876270260283,4.349934594762033,-2.9410926341165142,4.276297250841603,-0.10861939202667466,17.536191759690567,3.676196964132572,0.7999037972368228,0.0,0.0,0.0,0.0,0.0,0.0,0.0,0.0,0.0,0.0,0.0,0.0,0.0,0.0,0.0,1911.1764600751662,1905.9097134389692,1909.6805001369055,1866.43727385854,1910.8472671268019,1904.7852472201494,1905.562509454291,1874.3497433587022,27.14433516947403,-3.0614805257535402,4.501865098069529,-0.26826474252743115
69,0.7000000000000004,-4.166509971362891,0.8564114343235941,2.1767964366554877,0.8116810144721074,0.1597641211932303,0.47830679730242837,0.2947405027802919,7.121399482327212,-7.005045435269608,4.359447723590697,-3.012007125337595,4.368328959227289,-0.15872491368476446,18.389669648939844,4.959263352574794,0.9384330846140543,0.0,0.0,0.0,0.0,0.0,0.0,0.0,0.0,0.0,0.0,0.0,0.0,0.0,0.0,0.0,1936.613769901164,1935.041705420221,1934.422764186849,1902.9451141510488,1937.5148724355756,1934.5909232221811,1933.5055032070682,1909.371112375761,27.38787313816029,-3.019015038717472,4.5177878368166,-0.31370192383064666
70,0.7100000000000004,-4.0943644309408125,0.786634891890796,2.220437518595035,0.8035521021255412,0.1405121110197491,0.49168911265020426,0.30463450613424037,7.308368276693336,-6.947995553530856,4.368508787600559,-3.030268572860881,4.430661090028372,-0.2088323220714042,18.831753236277393,6.317413128785532,0.810336643148446,0.0,0.0,0.0,0.0,0.0,0.0,0.0,0.0,0.0,0.0,0.0,0.0,0.0,0.0,0.0,1946.2778873206717,1950.297982158466,1940.8992874177702,1925.1727840466485,1947.2441505376007,1948.2986480669592,1941.7190849878798,1928.137157352951,27.61628571016019,-2.984485282130861,4.516981557899079,-0.3541693797157163
71,0.7200000000000004,-4.020331401917933,0.7174975402226638,2.264159838301867,0.794797790988201,0.12094265386615242,0.5049524506821512,0.3141534154934139,7.49864386091453,-6.8771607203135,4.375511486266628,-3.0221042170933323,4.471981969957387,-0.25873914833974504,19.106778471283725,7.706315154508481,0.5626696328215886,0.0,0.0,0.0,0.0,0.0,0.0,0.0,0.0,0.0,0.0,0.0,0.0,0.0,0.0,0.0,1953.8486705701696,1959.549440527459,1945.7305965359253,1939.218169108363,1954.5639612426064,1957.4095438451716,1947.1726680133654,1941.0351233464355,27.882328059512712,-2.954665857868124,4.539395885293579,-0.39102420079355427
72,0.7300000000000004,-3.9443835882492913,0.6491384760352592,2.3079383349652023,0.7854546171282797,0.10117084046081022,0.5180246087866771,0.32322748980204485,7.691195214327899,-6.792311917948889,4.379633353223209,-3.001937532451714,4.493896237413206,-0.30778579298240416,19.301167048856982,9.112862933680965,0.2463928322269382,0.0,0.0,0.0,0.0,0.0,0.0,0.0,0.0,0.0,0.0,0.0,0.0,0.0,0.0,0.0,1961.6770946707425,1966.2534391401894,1952.0992030939483,1950.9516027152508,1962.022194117845,1964.4186527642225,1954.0684130407049,1952.1458570596715,28.134614332583702,-2.8704412677818945,4.487947246913044,-0.42684666637278795
73,0.7400000000000004,-3.866500913157339,0.5816987722256948,2.3517414990264625,0.7755451118358018,0.08125376727222273,0.5308660076994791,0.3318265912805691,7.8855515753423,-6.6932617568134605,4.380368094997232,-2.976989366966342,4.517054776709253,-0.35542496023929376,19.460387195687545,10.537793069936185,-0.11458352092841295,0.0,0.0,0.0,0.0,0.0,0.0,0.0,0.0,0.0,0.0,0.0,0.0,0.0,0.0,0.0,1969.8167797652975,1974.563891733349,1962.0823551680492,1961.9261882092612,1970.4807444760484,1972.5847656224553,1963.9126134265705,1963.3255600175087,28.31650986907939,-2.7098595951646325,4.441393255417478,-0.46663830601386186
74,0.7500000000000004,-3.7866682895747745,0.5153210105364373,2.395532602081889,0.7651178558568668,0.06129336191295792,0.5434192382674601,0.3399019298492016,8.081057799308024,-6.579927729933203,4.377115456218086,-2.925153204088935,4.504014559329271,-0.4012536648487344,19.542303484119117,11.962560208014672,-0.5403584647520887,0.0,0.0,0.0,0.0,0.0,0.0,0.0,0.0,0.0,0.0,0.0,0.0,0.0,0.0,0.0,1977.6459844577598,1982.4091930865472,1967.1461912648351,1976.7936121401958,1978.1778860494137,1980.617697460057,1971.0856383624246,1975.9526215294761,28.54685264320439,-2.5801333652807372,4.439133414882287,-0.5082061218630406
75,0.7600000000000005,-3.704879515786781,0.4501471405463632,2.4392679456199526,0.7542471433569417,0.041492103745997565,0.5556435826485402,0.347346888752612,8.27658761898036,-6.452548169575174,4.369081767627798,-2.825174899931468,4.476481311334675,-0.4450549938289442,19.500063155076575,13.349141443395496,-1.0508852746271558,0.0,0.0,0.0,0.0,0.0,0.0,0.0,0.0,0.0,0.0,0.0,0.0,0.0,0.0,0.0,1980.3921816752033,1991.6461738604964,1967.9696036986275,1989.911336223154,1982.2108984815363,1988.495509415546,1973.5986042173467,1987.0224240431528,28.775906501225286,-2.524940296171252,4.4049353391785235,-0.5453895611752466
76,0.7700000000000005,-3.621137685345893,0.38631622814893307,2.482896718759104,0.7429557704816547,0.02198496051275851,0.5675908073704792,0.35408199616443475,8.471622839132754,-6.311375895900339,4.355725583240166,-2.712657923753992,4.461867063718299,-0.48693040330858606,19.43394326999126,14.714699466177983,-1.6052582915548896,0.0,0.0,0.0,0.0,0.0,0.0,0.0,0.0,0.0,0.0,0.0,0.0,0.0,0.0,0.0,1986.2516504263626,2001.4750470487809,1975.447499302792,1998.6304519399398,1988.7114975603508,1997.971947199944,1980.3884184039061,1996.4342699121105,29.06975042039962,-2.500555307864392,4.379642816726825,-0.5780963859428407
77,0.7800000000000005,-3.535449911623384,0.3239647425664266,2.526363004526204,0.7312707155774123,0.0027569399617060667,0.5792576963191646,0.36013339344743006,8.66567829733715,-6.156725669950759,4.3364881080224595,-2.625147331995142,4.43715205760234,-0.5269433511117545,19.30953745092978,16.044222379936635,-2.2181378952135233,0.0,0.0,0.0,0.0,0.0,0.0,0.0,0.0,0.0,0.0,0.0,0.0,0.0,0.0,0.0,1997.0312288378527,2005.9959115823842,1985.8934079825144,2004.82733784012,1997.9505256804587,2004.0804334385346,1989.9597673221588,2003.4176792128708,29.26819552060238,-2.390472930348652,4.301270529944099,-0.6082107730376188
78,0.7900000000000005,-3.447827503797525,0.2632263931815947,2.569605747119493,0.719234382128449,-0.016271648315419215,0.5905793789282294,0.3655860147901644,8.858522069549027,-5.988769767016772,4.310958211212502,-2.5644297724611045,4.41276810120567,-0.5651212411277878,19.174647026144243,17.364923954486855,-2.8646804681775606,0.0,0.0,0.0,0.0,0.0,0.0,0.0,0.0,0.0,0.0,0.0,0.0,0.0,0.0,0.0,2009.6062672970293,2012.4048553408534,1999.4075957066284,2012.6617133741838,2009.921151841474,2011.3654176942075,2002.7132213194352,2012.1456089900933,29.392415268241514,-2.210319491256971,4.239368031730777,-0.6396613707057299
79,0.8000000000000005,-3.358286745756832,0.20423192871102294,2.6125590771326346,0.7069110275800141,-0.03507540217464828,0.6015041841670018,0.3704581375508504,9.049140826385146,-5.80807857245212,4.27849099955898,-2.480800177605093,4.362197820966042,-0.6012668193960292,18.905992101528213,18.605788592242156,-3.584674366713614,0.0,0.0,0.0,0.0,0.0,0.0,0.0,0.0,0.0,0.0,0.0,0.0,0.0,0.0,0.0,2015.7416989042076,2018.9662265820393,2003.3879092378656,2023.9452125712364,2016.3442244716398,2017.422044168446,2008.5620602547888,2021.1928754126345,29.60571836464468,-2.078744700089419,4.263757934730888,-0.6697914055111238
80,0.8100000000000005,-3.2668561074241023,0.14710432434275222,2.6551503081156462,0.6943802835957656,-0.05349452981384626,0.6120464437033732,0.37466452698849545,9.236325666615816,-5.6155564375910405,4.238444124087054,-2.354791415062271,4.307322531014965,-0.6351068270031195,18.524687763946446,19.74868578430211,-4.364904889007093,0.0,0.0,0.0,0.0,0.0,0.0,0.0,0.0,0.0,0.0,0.0,0.0,0.0,0.0,0.0,2016.2509534049464,2026.600790920371,2003.3361357452754,2033.383785644864,2018.2250536744134,2023.576644527653,2009.7348745449121,2029.0487672681998,29.82694882426436,-2.0622777669097463,4.2337282001539505,-0.698856212863701
81,0.8200000000000005,-3.173571650567257,0.09195903956984758,2.6973018103808055,0.6816273271757609,-0.07146958728501603,0.6223206990947487,0.3781444597224198,9.419929892639919,-5.411665245789128,4.19050157062781,-2.2270344307126617,4.2910359594836525,-0.6666824023740978,18.165858310631222,20.866370668219503,-5.16878489913708,0.0,0.0,0.0,0.0,0.0,0.0,0.0,0.0,0.0,0.0,0.0,0.0,0.0,0.0,0.0,2020.4307960883789,2036.3169414658782,2012.986244678893,2038.5742055143962,2023.490555139676,2032.6183508017812,2017.6630629083338,2036.0791077917156,30.13355439682318,-2.1060811543715383,4.167695175047702,-0.7240047802029353
82,0.8300000000000005,-3.0784696401128295,0.03890763936833475,2.7389327944673387,0.6686261283555834,-0.08910297648427508,0.6323412998787412,0.3809780053094004,9.59977669654102,-5.196872017413721,4.13427122632232,-2.1481594832931408,4.266266624075547,-0.6965678475183936,17.77292108202211,21.9304354325649,-6.0149994472693535,0.0,0.0,0.0,0.0,0.0,0.0,0.0,0.0,0.0,0.0,0.0,0.0,0.0,0.0,0.0,2032.7924446923432,2038.8107785582233,2025.493099744381,2041.4772154649409,2033.4439090173598,2037.6092700594286,2028.6324549695976,2040.4428417716608,30.28548185085248,-2.064402471017619,4.090539146395377,-0.7448532010997344
83,0.8400000000000005,-2.981587973084541,-0.01194217035652526,2.779958800270482,0.6554223115754991,-0.10653724369506674,0.6419647708700348,0.3833440258523291,9.77586758397735,-4.971361221443634,4.069471594671217,-2.1221194847159013,4.222060859281249,-0.7251727212322665,17.391246131337468,22.991969101765264,-6.881328692068145,0.0,0.0,0.0,0.0,0.0,0.0,0.0,0.0,0.0,0.0,0.0,0.0,0.0,0.0,0.0,2049.563688060118,2041.9021025422326,2040.2256873078288,2048.0746479158647,2048.2256103100044,2043.0124197324783,2042.6378215741724,2047.9965588300183,30.37263096808584,-1.9757115888075674,3.99334711643518,-0.7671541999662433
84,0.8500000000000005,-2.8829686783283317,-0.06048721782433091,2.820292291667907,0.6420806548962621,-0.12380784232272449,0.6510912112699357,0.38533658714742697,9.947058289824438,-4.736140888540253,3.9957025303556284,-2.087764947606891,4.162815284208664,-0.7523633196170472,16.849862658959935,23.912607921658946,-7.791723355428104,0.0,0.0,0.0,0.0,0.0,0.0,0.0,0.0,0.0,0.0,0.0,0.0,0.0,0.0,0.0,2055.077687469918,2045.9168457242592,2044.583879097084,2055.7689947488093,2054.1258598160957,2046.1792411043543,2048.041574076479,2054.1199564992344,30.598788609332466,-1.8825508937445719,4.0089095607112375,-0.7852697627872457
85,0.8600000000000005,-2.782666923227904,-0.10663652808715104,2.8598420493408505,0.6286855320775684,-0.14081686026909773,0.6597082461534834,0.3869239506380974,10.1122195584826,-4.492390142343904,3.9126988389676822,-2.0297503328852367,4.08575170683056,-0.7779664907655003,16.216361668449863,24.722474192564903,-8.720164109076833,0.0,0.0,0.0,0.0,0.0,0.0,0.0,0.0,0.0,0.0,0.0,0.0,0.0,0.0,0.0,2056.7275241539746,2049.6545470070623,2044.364391132072,2062.835430913151,2056.1358954394673,2049.4155023256285,2048.965351909012,2059.735269176191,30.82278616788788,-1.8842581363878603,3.955290099093599,-0.8057822032041821
86,0.8700000000000006,-2.680743258533794,-0.15030661155079122,2.8985154771005552,0.6152258360384354,-0.15751959382145667,0.6679112473751104,0.38804550488693407,10.271518636618344,-4.240280050487306,3.82042958610276,-1.9565627832817625,4.054405654516823,-0.801716633907735,15.640358520604636,25.551587469291093,-9.650623381580292,0.0,0.0,0.0,0.0,0.0,0.0,0.0,0.0,0.0,0.0,0.0,0.0,0.0,0.0,0.0,2059.3013618552905,2060.75145197152,2053.614556386224,2069.5826951457657,2060.845240561221,2058.886638539989,2057.1030223626713,2067.94632612296,31.137276892768917,-2.0243555320679754,3.7758629677856437,-0.8257116717741316
87,0.8800000000000006,-2.577255992608576,-0.19141518859982987,2.9362191983689927,0.6016601647013601,-0.1739662615491849,0.6757429161873113,0.38873165201305804,10.424885012156642,-3.980190231318318,3.718727173396555,-1.9167618600408136,4.010065652686848,-0.82410495050774,15.032262599417479,26.321554729105134,-10.600564898892717,0.0,0.0,0.0,0.0,0.0,0.0,0.0,0.0,0.0,0.0,0.0,0.0,0.0,0.0,0.0,2070.001888928739,2064.647775536717,2064.256538557634,2074.4644411640406,2069.4956098317884,2064.9344542903514,2066.844157442549,2073.6360214757583,31.25139160829539,-2.1234486818980502,3.6158030814557907,-0.8396088559928602
88,0.8900000000000006,-2.472264659397524,-0.22988362924862854,2.9728581959235463,0.5880902585265309,-0.1902458538095932,0.682981967617173,0.3892197256617806,10.572343974236498,-3.712248862776783,3.6074868768102544,-1.9558344734889341,3.9009807482398355,-0.8457380458566421,14.437397467835567,27.100166302120865,-11.551217356329246,0.0,0.0,0.0,0.0,0.0,0.0,0.0,0.0,0.0,0.0,0.0,0.0,0.0,0.0,0.0,2092.0613968530292,2062.858958619933,2078.1378610869833,2081.7060800674817,2087.0632358685457,2068.069640321415,2080.251315993647,2081.5981992900074,31.30076049634335,-2.364982649434709,3.2614155512818135,-0.8577463629944347
89,0.9000000000000006,-2.3658329682760773,-0.26563855574212775,3.0083375345101064,0.5746327687212165,-0.20642628941072405,0.6894053004127357,0.3897508177217009,10.71269924178806,-3.4377726389928656,3.4868384050790246,-2.0196584150907757,3.770267753966432,-0.8666062611874029,13.673532617350048,27.693289285852796,-12.478565769970196,0.0,0.0,0.0,0.0,0.0,0.0,0.0,0.0,0.0,0.0,0.0,0.0,0.0,0.0,0.0,2100.38327833102,2061.419276505692,2083.478386442743,2085.9095680657533,2094.7692255424517,2066.6177849672717,2085.525287529369,2085.2425580956115,31.385596282242147,-2.3861825003659773,3.0520013372270856,-0.8666283945454212
90,0.9100000000000006,-2.258038209959323,-0.298621679431196,3.0425649155003174,0.5614772009958875,-0.22251309181465445,0.6947457427327747,0.3905888243250084,10.8448202686975,-3.1580380512474937,3.357198162223929,-2.16273516733724,3.5318558084156777,-0.8869248891009708,12.818501518223613,28.1859236324693,-13.346939239766709,0.0,0.0,0.0,0.0,0.0,0.0,0.0,0.0,0.0,0.0,0.0,0.0,0.0,0.0,0.0,2115.9947463647727,2048.3585169444987,2085.681373340158,2087.6973806733004,2104.732561687383,2059.3847472086745,2088.0199702210543,2086.443428943329,31.32590332429347,-2.166967017943734,2.8047920235351795,-0.8779127772653464
91,0.9200000000000006,-2.148965253971569,-0.3287827542723985,3.07545393768809,0.5487763997807824,-0.23845306478191708,0.6988771956920616,0.3918612819370572,10.968296336217794,-2.8733977865382134,3.2192914461715847,-2.249888025961766,3.3125440561929698,-0.9061026464885147,11.94151854183545,28.66334108676938,-14.14036719416556,0.0,0.0,0.0,0.0,0.0,0.0,0.0,0.0,0.0,0.0,0.0,0.0,0.0,0.0,0.0,2113.1631805418183,2055.0846209117617,2084.50718961047,2096.309839377718,2106.0378890500574,2061.8005034972034,2088.6606068730334,2093.3788320949407,30.86482184741345,-2.0759586965314756,2.437950789263357,-0.8916769936944062
92,0.9300000000000006,-2.038704162431714,-0.3560777316082993,3.1069259323642635,0.5366535827163212,-0.25397057176330845,0.7020288669982667,0.3932649879369954,11.082318503270317,-2.585073783079424,3.073929248143485,-2.203416170252031,3.0783527798326418,-0.9230988096112994,10.974056646784192,28.974706533606565,-14.850675757087206,0.0,0.0,0.0,0.0,0.0,0.0,0.0,0.0,0.0,0.0,0.0,0.0,0.0,0.0,0.0,2098.526906095835,2065.2621246811527,2069.593765982904,2108.7102478561596,2095.3349512741984,2067.553905905741,2078.39932197906,2100.726260144927,30.243824252164547,-1.9646005225625927,2.1586617418420397,-0.8970371017748628
93,0.9400000000000006,-1.9273569443508267,-0.38048459064171164,3.136911613667527,0.5253690861192408,-0.2687669299502658,0.7042948881158984,0.3946142056352721,11.185266580296707,-2.2963627264552335,2.9222412663453783,-2.1412573642578137,2.780192549985411,-0.9373764501667621,9.825096499238128,28.89420863421588,-15.429990224329782,0.0,0.0,0.0,0.0,0.0,0.0,0.0,0.0,0.0,0.0,0.0,0.0,0.0,0.0,0.0,2085.416276710415,2048.4462422391307,2048.1943717195104,2100.81614960422,2078.7672824634665,2053.117456801611,2057.338119447156,2091.1046674562876,30.58058527715797,-1.939036555344856,1.7663838393523412,-0.9079096744631157
94,0.9500000000000006,-1.8150391598907865,-0.4020140649638614,3.1653542656974842,0.5150667568196473,-0.28274835275718596,0.7056889284171555,0.39593274850892907,11.276398759607636,-2.0099262847518395,2.7655298118557763,-2.057338801176667,2.4940200608448135,-0.9484878667293364,8.644898505053789,28.596470371191618,-15.881125141071095,0.0,0.0,0.0,0.0,0.0,0.0,0.0,0.0,0.0,0.0,0.0,0.0,0.0,0.0,0.0,2062.1936240752952,2029.1374469068126,2025.8853690524968,2083.131260980441,2056.4804252771046,2032.3145418190888,2034.51931015182,2073.245418954684,31.102084455344162,-1.75813478694321,1.564580057452156,-0.9094511082944053
95,0.9600000000000006,-1.7018548855617859,-0.42067337141352945,3.192205163197757,0.5058427214552669,-0.29588078610080276,0.7062049531416549,0.39730626187526086,11.359295976609475,-1.721304203006734,2.6038403826645893,-2.000720873580789,2.1555218425591702,-0.9569541125248887,7.960682087402304,28.999264768956312,-16.375664414942648,0.0,0.0,0.0,0.0,0.0,0.0,0.0,0.0,0.0,0.0,0.0,0.0,0.0,0.0,0.0,2077.37080329884,2033.7391824776962,2034.7182122113243,2093.6556095583765,2070.4715605663946,2041.509906302675,2045.1547958587532,2084.895424930323,31.365535026202327,-1.4202364907819283,1.353420829933498,-0.9173095714481027
96,0.9700000000000006,-1.5878722424094478,-0.4364212785861285,3.217414822463601,0.4977084510540073,-0.30815487524365737,0.7059368723239416,0.39872296511046085,11.436265954242788,-1.4274436406198086,2.4373513984810162,-1.8886837349614503,1.8856639185860344,-0.9626910457847379,7.4088293309113595,29.554071259156878,-16.833489779350064,0.0,0.0,0.0,0.0,0.0,0.0,0.0,0.0,0.0,0.0,0.0,0.0,0.0,0.0,0.0,2085.0250050679206,2059.7336855299886,2051.0939627261823,2112.3429919280084,2083.321271936156,2062.94441262364,2061.765666623366,2104.0083953198,31.589494134113053,-1.1880781067968842,1.0287228506299244,-0.9294780240692893
97,0.9800000000000006,-1.4731500035476048,-0.4492095332072232,3.2409390246422047,0.4906403907376906,-0.31947110673294576,0.7052014436419647,0.3998764094378188,11.507139534034032,-1.1297535181738603,2.266908062399943,-1.6786565142956715,1.6406369958408507,-0.966229736636562,6.795377924827761,29.858312608381564,-17.191327629103803,0.0,0.0,0.0,0.0,0.0,0.0,0.0,0.0,0.0,0.0,0.0,0.0,0.0,0.0,0.0,2082.2804223018798,2081.571353254987,2052.7409608743264,2128.127746549174,2083.9030582561727,2080.7847549648845,2065.598783763755,2116.8367251416184,31.64774445466343,-0.9904145589311291,0.7976677761409295,-0.9295412066587081
98,0.9900000000000007,-1.3577490611315033,-0.4590080182953578,3.262742213873241,0.4847773140908317,-0.329686315170835,0.7041320306588623,0.4006194862112713,11.572099138026505,-0.8296425244832728,2.0932627930953607,-1.46195385586336,1.3555962215913793,-0.968317988620466,6.232734596553158,30.064619546379735,-17.480521833113993,0.0,0.0,0.0,0.0,0.0,0.0,0.0,0.0,0.0,0.0,0.0,0.0,0.0,0.0,0.0,2091.465088961899,2089.1930728855423,2055.891396182008,2138.1215173363803,2090.6291441919298,2090.8118743600076,2069.2456612212827,2126.1220772141237,31.55239307574992,-0.9661227335285582,0.4802076968377063,-0.9371917889391496
99,1.0000000000000007,-1.24172705207016,-0.4658000318738066,3.282796700807529,0.4801623473701697,-0.3388055566789468,0.7027440222558413,0.4010059277805241,11.631391066932228,-0.5287447714960231,1.917325074426856,-1.2538796951571334,1.0984545176246263,-0.96858380378536,5.684830478967839,30.08390382848958,-17.671605191692528,0.0,0.0,0.0,0.0,0.0,0.0,0.0,0.0,0.0,0.0,0.0,0.0,0.0,0.0,0.0,2093.0153201554012,2091.994304245599,2060.3057083005547,2138.3015477596377,2092.443405997487,2092.7923909976885,2071.7774226181186,2127.530867981232,31.736427131630048,-0.8815802818428702,0.41238183701420406,-0.9305990956004192
100,1.0100000000000007,-1.1251398055337853,-0.4695868824393784,3.3010845037932537,0.4767448307149614,-0.3469411535371566,0.7009721507628373,0.40122842150549604,11.685183288356145,-0.22886464501004827,1.7400944222128838,-1.1279917553519678,0.8103447327814941,-0.9678649311914188,5.151272711222177,29.93152119709169,-17.75837297181626,0.0,0.0,0.0,0.0,0.0,0.0,0.0,0.0,0.0,0.0,0.0,0.0,0.0,0.0,0.0,2099.7525768150867,2080.793866731318,2062.6568597591922,2128.964554947538,2095.0127883800546,2085.4221152879118,2071.78390907749,2119.773386253256,31.73503443645005,-0.6568521088388053,0.44063764899827196,-0.9285592271470202
101,1.0200000000000007,-1.008037212117478,-0.4703763353866376,3.3175954135596206,0.47430772712768,-0.35430413153310336,0.6988275386330679,0.40142350904449464,11.734699543325528,0.07103448976972002,1.561966312621128,-1.0187233096241672,0.6305693230548365,-0.9659180610265672,4.774750014467699,29.986201015138132,-17.838048376686455,0.0,0.0,0.0,0.0,0.0,0.0,0.0,0.0,0.0,0.0,0.0,0.0,0.0,0.0,0.0,2100.42432372954,2090.7044871165585,2077.306411225758,2126.737705215836,2099.8230837207157,2091.9391449553436,2083.6200149711544,2121.0995167936935,31.877722274625903,-0.5192988176993524,0.3822905284255403,-0.9345933123533066
102,1.0300000000000007,-0.8904591392184413,-0.4681686286843779,3.3323228591526606,0.47253007261679364,-0.3610601360384593,0.6966032046184703,0.4013662715674234,11.780274658662778,0.37031592214550535,1.3835038879782877,-0.8584951601499553,0.5465567755318179,-0.963157695896158,4.387856607918295,29.874057439462476,-17.85053294439809,0.0,0.0,0.0,0.0,0.0,0.0,0.0,0.0,0.0,0.0,0.0,0.0,0.0,0.0,0.0,2088.4670987613395,2103.133516324107,2080.05099297845,2124.4593163935033,2092.281608058125,2099.513291199079,2085.7940210398865,2118.7480561844745,32.32181980020669,-0.47089115010234706,0.360682854711392,-0.9286795974155092
103,1.0400000000000007,-0.7724422445166406,-0.46297090949608466,3.345264428495997,0.4712772213079679,-0.3672641168926217,0.6944772016405982,0.40089433211354747,11.82262206959458,0.669162982948327,1.2047670076459887,-0.7101950675647343,0.47073061719418496,-0.9607034472640866,4.101606783059708,29.850618072469025,-17.880691493806555,0.0,0.0,0.0,0.0,0.0,0.0,0.0,0.0,0.0,0.0,0.0,0.0,0.0,0.0,0.0,2092.795132242226,2109.3505170073267,2086.1162550042395,2125.9056426957904,2095.332391355419,2107.4683867464523,2091.5441587177033,2120.86717995703,32.495970777344596,-0.5453814139271597,0.18449877724147196,-0.9326679962068558
104,1.0500000000000007,-0.6540122689899144,-0.4547786663239813,3.3564153180510488,0.4704465501565832,-0.37302138404463325,0.6924365054369813,0.400083461829425,11.863111764261921,0.969571621838887,1.0252812703761522,-0.6057302139091927,0.42121014021305603,-0.9579622439634072,3.961634088224031,30.069482069430386,-17.97079471486973,0.0,0.0,0.0,0.0,0.0,0.0,0.0,0.0,0.0,0.0,0.0,0.0,0.0,0.0,0.0,2109.2066496127604,2120.7158548839616,2106.459573875794,2134.3810056306506,2111.161735443399,2120.2969671723827,2110.2321892933746,2131.989313187041,32.79345674939719,-0.574809184897779,0.1910488601629839,-0.9205607870402722
105,1.0600000000000007,-0.5351862993453053,-0.4435778771411409,3.365768667014004,0.46999447055083715,-0.3784405209026158,0.6903150640182136,0.39919053368050295,11.9017379889363,1.2705380965621191,0.8453743664055815,-0.5799114473692618,0.30905303922050814,-0.9554218238422503,3.762709960733801,30.062961055880464,-17.986890071134187,0.0,0.0,0.0,0.0,0.0,0.0,0.0,0.0,0.0,0.0,0.0,0.0,0.0,0.0,0.0,2126.8639805127336,2116.3967018681083,2115.8055790702256,2136.1425219923585,2123.9454665886196,2120.135423094027,2118.7584529857145,2133.679144436525,32.75180397085376,-0.45705168587558603,0.3885029399903792,-0.9112260646212985
106,1.0700000000000007,-0.415982727261188,-0.4293650627122018,3.3733219822892413,0.46982636065466515,-0.38364517423358857,0.6880082523232477,0.39840207812758993,11.938701971097933,1.5721150945734887,0.6652761377114049,-0.5768806786775682,0.25753771913157203,-0.9522029430906671,3.6102121686010236,30.14959479131729,-18.003767814046668,0.0,0.0,0.0,0.0,0.0,0.0,0.0,0.0,0.0,0.0,0.0,0.0,0.0,0.0,0.0,2135.051421019593,2125.771825897002,2131.6057988596995,2140.957753574512,2134.455217896269,2127.4072777828596,2132.667827726857,2140.8011661060523,32.66653850287879,-0.3485839087157415,0.5445323541307522,-0.913046714155504
107,1.0800000000000007,-0.29642016055552967,-0.41214047267950804,3.379075790356593,0.4696589423948345,-0.38877807109381607,0.6857590263324702,0.39750049945714494,11.973394368227858,1.8724663242843924,0.4855730714487996,-0.5226282764907088,0.32392678488589555,-0.9481413586541215,3.3586147345481265,29.94632744989545,-17.949316532554825,0.0,0.0,0.0,0.0,0.0,0.0,0.0,0.0,0.0,0.0,0.0,0.0,0.0,0.0,0.0,2121.0167817233496,2137.0545153651346,2134.6927910186455,2137.2466552637366,2125.5860762938983,2132.591053303814,2134.030560908137,2137.7048159858855,32.57573836555049,-0.23981436526377276,0.518905496124702,-0.904140963917527
108,1.0900000000000007,-0.176523535654937,-0.39192434414311966,3.383035142923609,0.46929919114129987,-0.39390180868798547,0.6838325659091348,0.39619774874244823,12.005513571538682,2.170324385617991,0.30634975787116775,-0.4456760043786912,0.4284707809826777,-0.9444265482366332,3.1038467882194,29.676489361784242,-17.913227684892064,0.0,0.0,0.0,0.0,0.0,0.0,0.0,0.0,0.0,0.0,0.0,0.0,0.0,0.0,0.0,2112.677500749544,2140.9055205522604,2132.884826118812,2132.757809612639,2117.9097894040906,2135.6920390283617,2131.997420653951,2133.175656187965,32.52291445952417,-0.19317755131290298,0.31044894388232624,-0.9079468123715142
109,1.1000000000000008,-0.056318128872274074,-0.36874364694111084,3.3852034496707484,0.4688341947434005,-0.398946394318856,0.6822310202426513,0.39445799182924696,12.035186663017102,2.4653429818729755,0.12731947086584616,-0.35472464141673493,0.4683934802864631,-0.9404954689794424,2.8698305760546106,29.38353397198412,-17.904655952850458,0.0,0.0,0.0,0.0,0.0,0.0,0.0,0.0,0.0,0.0,0.0,0.0,0.0,0.0,0.0,2111.660850888328,2135.228158395909,2125.4528840108155,2135.127473109177,2114.577271581317,2132.175294641044,2127.226604271261,2132.9423266857743,32.893889313675615,-0.29259009326456187,0.2731472581199608,-0.8963249948743984
110,1.1100000000000008,0.06417319159018252,-0.3426267732530319,3.385581448563017,0.4685779607929329,-0.4037351325922585,0.6807308965991393,0.3924768576428171,12.062763437146486,2.7575902359832147,-0.05172124854543836,-0.2838665248922834,0.39078721543784056,-0.9369094899497425,2.6769763674749925,29.111285915677243,-17.904605437664465,0.0,0.0,0.0,0.0,0.0,0.0,0.0,0.0,0.0,0.0,0.0,0.0,0.0,0.0,0.0,2120.339416987999,2124.31106180078,2116.697537697142,2138.976434727584,2119.0984847345785,2125.591164411185,2120.9159678982032,2134.433431830507,32.49426741308501,-0.26253644838472795,0.525439688312453,-0.884433645185113
111,1.1200000000000008,0.18493486958809272,-0.31359046645454836,3.384166484349937,0.4685957225382001,-0.40828997697473535,0.6791299904499485,0.3905122271995147,12.089474253723727,3.049763003662465,-0.23139148544683985,-0.2881775435160247,0.3379706776743531,-0.9328182298255536,2.6309413033871465,29.203060604255704,-17.987453842106177,0.0,0.0,0.0,0.0,0.0,0.0,0.0,0.0,0.0,0.0,0.0,0.0,0.0,0.0,0.0,2137.837783700311,2128.3826947782595,2135.977519314929,2143.856552643596,2136.2033113587245,2131.3067248737207,2136.7701845860893,2144.1132628359082,31.75024615386384,-0.1388099829625699,0.83433254824845,-0.8832238552139811
112,1.1300000000000008,0.30595490523024216,-0.2816464374235204,3.3809560240982277,0.4685255842229188,-0.4128540699625031,0.6775727589475761,0.3884976836174691,12.114109425944422,3.3381875638609593,-0.4105674230350305,-0.2750008889313948,0.4317522145714914,-0.9278424617892351,2.3633821830717494,28.651917228175172,-17.89526289120591,0.0,0.0,0.0,0.0,0.0,0.0,0.0,0.0,0.0,0.0,0.0,0.0,0.0,0.0,0.0,2114.7523806166587,2126.401497787265,2133.1282962034015,2124.35106243661,2118.053352682817,2122.096198482519,2129.645838269783,2126.5142669164125,31.87268519304008,-0.056076593023941246,0.8296201844038024,-0.8724896228298072
113,1.1400000000000008,0.42720465637878197,-0.24685566324254254,3.3759605404634807,0.4680181290420095,-0.4175841178645153,0.676417313105635,0.3860597802494905,12.13526759252089,3.618618163563783,-0.5883339027910944,-0.21321087513072678,0.623229390266789,-0.9229310261996377,1.9897398249799636,27.759083094426984,-17.751041335896666,0.0,0.0,0.0,0.0,0.0,0.0,0.0,0.0,0.0,0.0,0.0,0.0,0.0,0.0,0.0,2078.5496446994853,2115.2178333356287,2112.30790173165,2096.945889320471,2085.252864930747,2106.5257824138334,2107.7288270573536,2098.9105773013116,32.31243381934111,-0.025019929357465824,0.7256124450026281,-0.8756222795426425
114,1.1500000000000008,0.5486548259499722,-0.2092843362763495,3.369187497337032,0.4671431381919837,-0.42240278747098386,0.6757148461873272,0.38309609789049653,12.154583474869657,3.895340955440412,-0.7664615584010191,-0.14320971617864758,0.715262317607884,-0.9176862547149371,1.8802207772932178,27.579348145187144,-17.862297014321182,0.0,0.0,0.0,0.0,0.0,0.0,0.0,0.0,0.0,0.0,0.0,0.0,0.0,0.0,0.0,2085.0329274210862,2113.317493473773,2109.382890508354,2106.2625313331096,2088.8280499431057,2110.029427472653,2109.7890656307345,2105.953740165646,32.76116127641447,-0.17358926955996223,0.5623801959307739,-0.8647175527350643
115,1.1600000000000008,0.6702961037545266,-0.16894586849740983,3.3606243860727942,0.4662169239182742,-0.4271334732814357,0.6752278883629828,0.3798237415322881,12.173669287145936,4.17247436023327,-0.9465111744855529,-0.09036209412465496,0.7171272520508563,-0.9128332132542225,1.8929882740685855,27.698361765224888,-18.08549120984115,0.0,0.0,0.0,0.0,0.0,0.0,0.0,0.0,0.0,0.0,0.0,0.0,0.0,0.0,0.0,2108.280395287547,2119.38771975081,2117.326775511932,2124.6612299268245,2109.3955437217523,2119.9617558069817,2119.916383114224,2123.2229502635428,32.51058614132472,-0.26651858630058245,0.7903009895627391,-0.851258022607915
116,1.1700000000000008,0.7921293452201298,-0.12582953188189983,3.350249367158305,0.4654145665580018,-0.43173915437601335,0.6746568677738509,0.3766015063430957,12.192995996297435,4.450943870008219,-1.128838711986366,-0.12664565959499907,0.6427154572057976,-0.9076977616862492,1.9200569561608205,27.838296343459135,-18.309237753359795,0.0,0.0,0.0,0.0,0.0,0.0,0.0,0.0,0.0,0.0,0.0,0.0,0.0,0.0,0.0,2136.365207143184,2119.573908912353,2134.913806071453,2137.2361012278416,2132.7525852142217,2124.91144383306,2136.066040091561,2137.3969328936164,32.05247227258065,-0.15601825590426532,1.242314311301695,-0.8453639934095851
117,1.1800000000000008,0.9141512466770296,-0.07993873062045047,3.338045550130193,0.4644782706696132,-0.4364286766288671,0.6739827707412458,0.373546745449207,12.21108719622697,4.726498723046861,-1.3119946837957879,-0.18559440860052628,0.7183012754702742,-0.9018533154317003,1.7356501007004255,27.386125888421375,-18.343550745980373,0.0,0.0,0.0,0.0,0.0,0.0,0.0,0.0,0.0,0.0,0.0,0.0,0.0,0.0,0.0,2122.7486214908154,2117.668547472635,2139.6060732287515,2119.7484763928574,2123.380346790739,2116.5064477295496,2134.661248362257,2123.873237645752,31.94521423921763,-0.04180193544945966,1.1779892211783034,-0.8289545282757403
118,1.1900000000000008,1.0363424357736064,-0.03132136426887023,3.3240099544742927,0.4629068430975173,-0.4414447386104311,0.6736386283914406,0.37020912428728364,12.226736685527094,4.995948273786408,-1.4951754315893788,-0.1685639202451877,0.9695499801653304,-0.8957569641465455,1.4693990696041936,26.716300562506845,-18.352785801560856,0.0,0.0,0.0,0.0,0.0,0.0,0.0,0.0,0.0,0.0,0.0,0.0,0.0,0.0,0.0,2088.34339304653,2122.420549020731,2130.9606255116687,2099.1273110528196,2096.672704063948,2113.1137820742283,2124.063018548673,2104.4237444760915,32.04176781221014,0.07072451710007005,1.1375775255043798,-0.8262699665130069
119,1.2000000000000008,1.1586796490591198,0.01996522551412972,3.308138115473953,0.4608105275650876,-0.4466489162578174,0.6737495568764652,0.36636039346478155,12.240442679208345,5.260737176481444,-1.6794603366272316,-0.11048197451670065,1.059652489500991,-0.888870006987307,1.3050722038379092,26.320681522239653,-18.506698522405607,0.0,0.0,0.0,0.0,0.0,0.0,0.0,0.0,0.0,0.0,0.0,0.0,0.0,0.0,0.0,2087.293978115623,2113.7703016219275,2115.5978442792807,2108.2582912234802,2090.521360109036,2110.3917048953726,2116.0949920412654,2107.1470854115382,32.62262026753826,-0.08708394532989583,0.7662169231140583,-0.8154954541110417
120,1.2100000000000009,1.2811478645454304,0.07388515276785103,3.290413462724324,0.4586280683442381,-0.4517584079455413,0.6741180940842983,0.3621317867924546,12.253061277385909,5.522861149892826,-1.8658593293156365,-0.028744272118659132,1.094522984393487,-0.8817911358411422,1.222856465650679,26.09726931608325,-18.742115564742257,0.0,0.0,0.0,0.0,0.0,0.0,0.0,0.0,0.0,0.0,0.0,0.0,0.0,0.0,0.0,2093.7189036173086,2113.7548277978494,2110.362056938133,2118.4544986425262,2096.465708774924,2111.656725905847,2112.7095313422737,2116.0765600499362,32.32002366316939,-0.30623177296144377,0.815576328409987,-0.8033604496396011
121,1.2200000000000009,1.4037424667839777,0.1304270191107676,3.2708087733583455,0.456701128739517,-0.4566330641624111,0.6743758449999009,0.35794907934281367,12.265943543926694,5.78574020965126,-2.0556570188645114,-0.054185296173623415,0.9342899548238707,-0.874352568465143,1.2911068682477378,26.28883545332439,-19.110709446530816,0.0,0.0,0.0,0.0,0.0,0.0,0.0,0.0,0.0,0.0,0.0,0.0,0.0,0.0,0.0,2134.068721621949,2109.285630309678,2125.8167903519575,2139.944787145078,2127.9902193450853,2117.6892628412743,2130.0175572880794,2137.348156153243,31.712927492389543,-0.24682600904113772,1.2878711915950405,-0.7919051283882119
122,1.2300000000000009,1.5264625118052026,0.18958667260013573,3.249296002441512,0.45494309281324447,-0.4614290321431442,0.6742567683735207,0.35424262998608386,12.277782730813442,6.045371832123645,-2.2470286293972395,-0.16276921435348404,0.8844888364933303,-0.86668662567986,1.1149015317002409,25.772107689579826,-19.18198682393024,0.0,0.0,0.0,0.0,0.0,0.0,0.0,0.0,0.0,0.0,0.0,0.0,0.0,0.0,0.0,2128.729232348723,2096.74306182939,2130.598906410929,2118.9585494625526,2123.924215341426,2101.0445831912434,2126.9313411367593,2121.5193923629754,31.567896138531943,-0.12725040117188843,1.0758833298181847,-0.7631603291918856
123,1.2400000000000009,1.6492888004051656,0.2513081040165503,3.2258695231905667,0.45272745309641876,-0.46648152746855315,0.6741681379832564,0.3506139750090186,12.287023721776428,6.29768315109262,-2.438263160572825,-0.19454977239018878,1.0826710058913607,-0.8587203469640716,0.8221953962568307,24.96278998824053,-19.150552119981956,0.0,0.0,0.0,0.0,0.0,0.0,0.0,0.0,0.0,0.0,0.0,0.0,0.0,0.0,0.0,2085.4437361770465,2100.357064242842,2121.809011288797,2089.4886777447377,2091.4670508156128,2092.8208934161325,2114.109108592098,2095.0798219191724,31.701159363804603,0.057182846323107384,1.089717920927099,-0.7473594017936961
124,1.2500000000000009,1.772196243938511,0.31552302307040314,3.200527358637765,0.4501622584447136,-0.4716457210922701,0.6742826119848894,0.346766800634292,12.294190447985466,6.544606325425562,-2.6304081609324896,-0.16191982480902042,1.0700821447085531,-0.8490732833629665,0.649306475207112,24.522690103632172,-19.285142561585644,0.0,0.0,0.0,0.0,0.0,0.0,0.0,0.0,0.0,0.0,0.0,0.0,0.0,0.0,0.0,2081.906273999169,2089.4484756034353,2101.310802073372,2102.6652144851355,2082.0839493619123,2088.974651448482,2103.9632821170317,2099.2502945631304,32.42612727654593,-0.10972898494490452,0.4151512445399336,-0.7347955036876639
125,1.260000000000001,1.8951694090143842,0.3821925218574548,3.1732542050714567,0.4477160500083754,-0.4766013893402084,0.6745053784520583,0.34270096101867986,12.30032152795236,6.788947231611579,-2.824601518268704,-0.06313501378861554,1.0810196956447453,-0.8380003748950953,0.5784384510914009,24.326450702284674,-19.516434498108914,0.0,0.0,0.0,0.0,0.0,0.0,0.0,0.0,0.0,0.0,0.0,0.0,0.0,0.0,0.0,2080.0624479097387,2098.0839101432657,2098.2239510268996,2114.65437369504,2083.833877664488,2095.182643007344,2101.6272257174774,2111.261163378242,32.086510489153916,-0.415052735479636,-0.06492337129022674,-0.7282642686429902
126,1.270000000000001,2.018205350704607,0.45130980507235907,3.1440219148992794,0.4458714359757711,-0.4811283260142543,0.6744413504917627,0.3388850265716571,12.307015643903972,7.03492854539003,-3.0224722507415236,-0.084531018416132,0.7575478219879945,-0.8262579632883856,0.686328993202423,24.63776315888211,-19.915576191797513,0.0,0.0,0.0,0.0,0.0,0.0,0.0,0.0,0.0,0.0,0.0,0.0,0.0,0.0,0.0,2133.883132596682,2089.5185043957213,2111.180582701722,2147.28038755381,2123.498789423776,2103.2286185984613,2120.276983889487,2140.247703651426,31.332203981487545,-0.5259696778965077,0.024221483120832235,-0.7136073417443662
127,1.280000000000001,2.1413059904540637,0.5228785664253394,3.1128031169988333,0.4449949012285881,-0.48518310003007264,0.6734444229123483,0.33622835480372815,12.312850182131642,7.278046176483304,-3.221192372753219,-0.22927377796813628,0.3730470925795161,-0.8149151679712041,0.5205331012803072,24.136986894050416,-19.852142846993548,0.0,0.0,0.0,0.0,0.0,0.0,0.0,0.0,0.0,0.0,0.0,0.0,0.0,0.0,0.0,2144.1170395687213,2060.475078442282,2105.6194051903008,2133.2235514092213,2128.8979756777403,2076.071702123324,2109.654379829207,2127.7950482929236,31.16583064792237,-0.7185867975792646,-0.5650657337035386,-0.6677018052703476
128,1.290000000000001,2.264452675646934,0.596843164022091,3.079607165588268,0.44465788205050033,-0.48904751637411426,0.6716231104768701,0.33471524036417527,12.316004396925294,7.513606908001911,-3.4175249391722664,-0.35663728304406084,0.22053423948715417,-0.803669110677971,0.20782958487686187,23.295522616070485,-19.53713411728275,0.0,0.0,0.0,0.0,0.0,0.0,0.0,0.0,0.0,0.0,0.0,0.0,0.0,0.0,0.0,2105.095991064314,2051.0870663712585,2094.5610599706765,2096.7258119510466,2099.0463688770983,2055.2750630220526,2091.865270610778,2096.532857701,31.282438089607073,-0.7332766054485704,-0.7334794846373459,-0.6321296559427216
129,1.300000000000001,2.38761882542356,0.6731352927002248,3.044459015728017,0.44483077105733504,-0.49273351440714397,0.6689905995955105,0.3343513818624963,12.316910659714264,7.744332677535615,-3.611808654612575,-0.515325790813335,-0.15555801106177167,-0.7891438310311525,0.010029369537534194,22.96625307432887,-19.350637381408742,0.0,0.0,0.0,0.0,0.0,0.0,0.0,0.0,0.0,0.0,0.0,0.0,0.0,0.0,0.0,2109.1050945058914,2027.5244615469262,2082.072936204643,2102.0550971546186,2094.7792522990335,2042.3560564696804,2087.1478254513413,2096.090540300209,31.839573742096878,-1.0798210606695087,-1.975955174089509,-0.6156854870177026
130,1.310000000000001,2.5107860393345827,0.7517274182225114,3.007375736433357,0.44571761352733374,-0.4961055174691535,0.6654598339867419,0.3352287784163223,12.316287333648134,7.974064599812274,-3.8045681066761663,-0.6094834529997404,-0.41940596710967876,-0.7714128393897361,-0.13288297680347227,22.956724010267493,-19.191290762972546,0.0,0.0,0.0,0.0,0.0,0.0,0.0,0.0,0.0,0.0,0.0,0.0,0.0,0.0,0.0,2100.7459374719815,2039.6989555136456,2085.6094807967665,2108.88762610999,2093.709219181282,2047.9376117003758,2089.5927427096713,2104.7084494173723,30.35492187192656,-1.0960124809081975,-4.008169817271616,-0.6093487358906463
131,1.320000000000001,2.633942260588781,0.8326271012528232,2.9683705994560046,0.44787920379810336,-0.4988763524490427,0.6605702614087823,0.33789574355805174,12.314835295194406,8.206566410504387,-3.996193561306593,-0.8195148951805153,-1.1641903118047137,-0.7513056947160437,-0.1979203774258309,23.386315317294404,-19.052015076708617,0.0,0.0,0.0,0.0,0.0,0.0,0.0,0.0,0.0,0.0,0.0,0.0,0.0,0.0,0.0,2155.886828724932,2017.5527265341077,2083.848286141718,2144.820949721777,2130.6700073887773,2048.242657835718,2098.703122888152,2131.591125907852,28.459361534072045,-0.8953606965157991,-5.160381510427266,-0.5930764661317842
132,1.330000000000001,2.7570654811055904,0.9158242016440341,2.9274819535141807,0.4530380057890919,-0.5001303184845048,0.6530220579020914,0.34378542979094967,12.30897914371734,8.431346000179639,-4.179810912861308,-0.942082280750037,-2.5149767918309,-0.7297825571479072,-0.7661467222259688,22.231556571167488,-17.935252928192646,0.0,0.0,0.0,0.0,0.0,0.0,0.0,0.0,0.0,0.0,0.0,0.0,0.0,0.0,0.0,2145.8264719238095,1932.397443529046,1981.8018471309556,2147.442475600133,2106.840874315437,1973.7230859634865,2015.8436938884763,2112.047495390212,27.33665677786338,-1.0571340168692411,-5.785396401032325,-0.5366145720403481
133,1.340000000000001,2.8800996066326356,1.0012034333941577,2.88482231388291,0.46216243143317715,-0.49910240199910555,0.6423732748968484,0.35307117552810097,12.296884747550834,8.64246923506494,-4.349668965749565,-0.9260577205957877,-3.7420586293082505,-0.7058758703607041,-1.4108592149728594,20.773315003392412,-16.386057316887026,0.0,0.0,0.0,0.0,0.0,0.0,0.0,0.0,0.0,0.0,0.0,0.0,0.0,0.0,0.0,2070.6905424473835,1882.426842403167,1900.2298901638126,2099.17984686057,2041.3567337524125,1909.6029442893278,1930.5288107108195,2065.2602168821822,24.974908709872444,-0.9379533138632006,-5.468597955963731,-0.48980911551999523
134,1.350000000000001,3.0029864867246605,1.0886407926594024,2.8405381187342784,0.4744962584779416,-0.49593208011633705,0.628996691211713,0.3650586734302233,12.27980994953659,8.843951232647514,-4.504731679860478,-0.9948733321700417,-4.684071164387615,-0.6759497704889523,-1.8583368142159884,19.9960424455643,-14.880021457388537,0.0,0.0,0.0,0.0,0.0,0.0,0.0,0.0,0.0,0.0,0.0,0.0,0.0,0.0,0.0,2015.3078042540624,1851.6441623952528,1889.8280860550003,2037.0297734307012,1991.05026286689,1875.2548528745524,1905.8347960792523,2017.2649955641632,22.452206712037917,-0.9871842301632737,-6.3034940869579215,-0.46694754415190637
135,1.360000000000001,3.1256726959268093,1.1780231370638612,2.7947889373245545,0.48843089505904763,-0.49129182630539703,0.6137985692292698,0.37857485200343993,12.25638717786846,9.029896503913486,-4.642188969780632,-0.9763160382506849,-5.02654443764235,-0.6415610526677409,-2.557554684621266,18.149017501526643,-13.036978624153761,0.0,0.0,0.0,0.0,0.0,0.0,0.0,0.0,0.0,0.0,0.0,0.0,0.0,0.0,0.0,1880.4726504601874,1817.8407207656287,1843.267294815902,1922.2794141276624,1875.195165639373,1816.2747013862322,1843.1490285459095,1912.6768722314077,26.487679063435156,-1.2309537127712038,-8.268877958730421,-0.43242938845085166
136,1.370000000000001,3.2480888131758983,1.269164049883031,2.7477553528402288,0.5034244809473488,-0.4853010137608935,0.5971118912559683,0.39307010487476923,12.225775619109735,9.195312239066443,-4.7617335260028115,-0.9920389714214296,-5.637016917351269,-0.6063173292780222,-3.2772536432670307,16.031134905894362,-11.267656093677303,0.0,0.0,0.0,0.0,0.0,0.0,0.0,0.0,0.0,0.0,0.0,0.0,0.0,0.0,0.0,1799.658697864198,1706.0342297595503,1735.8716587916565,1836.1588834966465,1778.4260816437659,1720.8734658657265,1746.7804892479744,1814.9983051910956,29.897673164513638,-1.3618316504454482,-9.307759923165696,-0.3918722849285806
137,1.380000000000001,3.3702013707950798,1.3620208471693047,2.699583549865037,0.5205030381910944,-0.47711626311409167,0.5775328791551411,0.409746790348208,12.197613368173846,9.381915228464981,-4.870947066826247,-1.108449722964811,-6.886286472993209,-0.5669775231727388,-2.6831695997699967,19.81165912034477,-10.35616141857787,0.0,0.0,0.0,0.0,0.0,0.0,0.0,0.0,0.0,0.0,0.0,0.0,0.0,0.0,0.0,1995.425433875542,1786.3316314497176,1836.7110490037687,2008.5131810858666,1961.3596370457064,1844.227793080778,1880.3283882783765,1981.7094531043647,30.516539921103444,-1.490270769060494,-9.426450173418342,-0.33035530067069774
138,1.390000000000001,3.4920591208915983,1.4569335376403258,2.6503823116657634,0.5400105704993109,-0.46609774902721673,0.5539906523751841,0.42922701357403903,12.174488590898166,9.606077392216841,-4.96625188495283,-1.2295392104770515,-8.005183877006221,-0.5220524393003108,-2.258125611735551,23.475326408222585,-8.62707250580641,0.0,0.0,0.0,0.0,0.0,0.0,0.0,0.0,0.0,0.0,0.0,0.0,0.0,0.0,0.0,2111.871125084735,1917.0372939955712,1964.5323905000719,2122.052810922619,2088.87374710985,1958.2065057031557,1995.3320565641163,2103.679019156276,31.26850136784023,-1.325066270968922,-8.43548902807768,-0.2935421521368847
139,1.400000000000001,3.6136886909342016,1.554196071412356,2.600334118292443,0.5607032434027885,-0.45263238814006657,0.527015366851015,0.45054477818203986,12.150980067344825,9.847893180673173,-5.039215248440047,-1.354449421866078,-8.648846731287417,-0.47018179777317454,-2.4956138839780095,24.47622738140609,-6.1508604637197095,0.0,0.0,0.0,0.0,0.0,0.0,0.0,0.0,0.0,0.0,0.0,0.0,0.0,0.0,0.0,2103.978874614389,1978.5006781369898,2026.80304576594,2115.8215986489977,2092.21262659443,1996.1137851153956,2035.068138854127,2108.3562414549115,32.457957248893834,-1.2864660456488541,-8.59697730641877,-0.26547080871569817
140,1.410000000000001,3.7350685809485187,1.65392116457369,2.549686475776952,0.5807531156004819,-0.43780483845162216,0.49835708707134946,0.4719035451386668,12.1243996543417,10.098335484690764,-5.085775858785695,-1.3490212318258392,-8.52126261520739,-0.416467153804047,-2.839485926481089,25.268585336771565,-3.435070508811755,0.0,0.0,0.0,0.0,0.0,0.0,0.0,0.0,0.0,0.0,0.0,0.0,0.0,0.0,0.0,2063.9406024107807,2073.809581890622,2093.892122800536,2096.6735360908806,2078.740333387395,2064.639556665836,2085.7527044208264,2105.19826890403,33.31442379703539,-1.521378941706132,-9.845690732672901,-0.21729819119967841
141,1.420000000000001,3.856166037393834,1.7561993150254507,2.4987137453276445,0.5994903124406338,-0.4220968650763462,0.4690541699829265,0.49237565679487033,12.09445065658521,10.358696366548692,-5.103899735061762,-1.3313997180293047,-8.567122059289245,-0.366245564023291,-3.1951859701120355,26.26037233945233,-0.5107507471695527,0.0,0.0,0.0,0.0,0.0,0.0,0.0,0.0,0.0,0.0,0.0,0.0,0.0,0.0,0.0,2106.1455757390095,2114.0282781439996,2126.2984622023682,2137.067415942936,2109.2059618517455,2117.273373519472,2128.692194766729,2136.306068916093,33.32896846153852,-1.6154683502503575,-9.999999999999995,-0.1772898362844997
142,1.430000000000001,3.9769426637538174,1.861116053524361,2.4477093434911406,0.6176364045382245,-0.40474094912135206,0.43786594193632866,0.5128191228743848,12.059994103716754,10.625237704285388,-5.091746492942334,-1.4247499083941482,-9.185425062625074,-0.3143993568626651,-3.706159543733989,26.692374284790432,2.6224712624829394,0.0,0.0,0.0,0.0,0.0,0.0,0.0,0.0,0.0,0.0,0.0,0.0,0.0,0.0,0.0,2182.627562799868,2093.271551379124,2126.4250436017924,2191.7917141304715,2163.2250384656118,2119.524157519717,2142.445932891386,2177.246213589816,34.15640996059919,-1.593523850309936,-9.685420906460173,-0.10609568507963178
143,1.440000000000001,4.09734384255363,1.9686934582351898,2.3969829628901165,0.63522183565068,-0.385421576884109,0.4040751573102497,0.533541652384745,12.019008519791228,10.889160744926365,-5.048295834332779,-1.5139345314491923,-9.551940382875001,-0.25951320925232885,-4.438659436164727,26.07339835397937,5.7611660319301095,0.0,0.0,0.0,0.0,0.0,0.0,0.0,0.0,0.0,0.0,0.0,0.0,0.0,0.0,0.0,2177.8938168576437,2105.321964863021,2136.9710694486457,2183.1230519197884,2169.374767013381,2116.8657928654297,2141.3171454659177,2176.6791237961725,34.72199913592568,-1.458146566914577,-8.24483910256857,-0.0528218580487778
144,1.450000000000001,4.217298468922225,2.078891294943631,2.3468578691067283,0.6514877670181372,-0.3647497819355855,0.36862410526361744,0.5537486388446133,11.970609747795145,11.149712241090475,-4.970935555978916,-1.5531324788083458,-9.602034139237682,-0.2011815940383275,-5.207295790169653,25.757963288022268,9.259476155071944,0.0,0.0,0.0,0.0,0.0,0.0,0.0,0.0,0.0,0.0,0.0,0.0,0.0,0.0,0.0,2175.186859140272,2157.3099260041936,2181.9525803355823,2191.0936045519966,2179.132821909563,2158.303936020871,2179.9692749414676,2193.3689476787376,36.2879459446897,-1.6218391253648161,-7.557285879617269,-0.0044767458180130365
145,1.460000000000001,4.336728083245939,2.1916647722998506,2.2976784615032204,0.6655272732293329,-0.3440073842984523,0.3334620557477097,0.5723071076900734,11.913869369427086,11.403502586702523,-4.859442943387378,-1.5141952135754289,-8.942378796368024,-0.14397228269706888,-6.069328988012046,24.903458628655173,12.581476032564431,0.0,0.0,0.0,0.0,0.0,0.0,0.0,0.0,0.0,0.0,0.0,0.0,0.0,0.0,0.0,2139.891289106333,2228.2813409882915,2238.5649557993834,2169.0099661799154,2165.6508285671052,2208.4583698116303,2220.2232904052303,2188.0188985283116,37.5226880397956,-2.0981148565679613,-8.21536980115854,0.04188711973740437
146,1.470000000000001,4.455547565057176,2.306951808878134,2.249791965015579,0.6769384326451532,-0.324357880216882,0.2998890605959835,0.5887383759226102,11.848540526035888,11.6530455621409,-4.711956225386901,-1.5656432858806948,-8.300585235967795,-0.0908372737275428,-6.945982762482927,24.553560763079574,16.220215424559647,0.0,0.0,0.0,0.0,0.0,0.0,0.0,0.0,0.0,0.0,0.0,0.0,0.0,0.0,0.0,2190.9860881852364,2274.515420752029,2298.8360657745056,2202.1727565593837,2208.2050533671845,2264.9334048444002,2283.0861125344913,2221.5493690531735,37.49966745333485,-2.272459815574361,-8.975521739328567,0.08268836776431415
147,1.480000000000001,4.573667201764076,2.42470365832927,2.203555820867355,0.6862149387388731,-0.3054851385270413,0.2665443326728941,0.6039387441708644,11.773667827055256,11.895606757158907,-4.529774162460187,-1.8014317771275417,-8.285614856907205,-0.03596264786823678,-7.963773044235012,23.653215601433075,19.60148130113737,0.0,0.0,0.0,0.0,0.0,0.0,0.0,0.0,0.0,0.0,0.0,0.0,0.0,0.0,0.0,2285.201776082668,2258.973234431071,2315.719111964182,2261.466726213582,2276.4639419732275,2274.401702784445,2313.2281101728804,2265.701001136953,37.079416859686255,-2.2362033450023033,-8.665442948164992,0.15736844403581174
148,1.490000000000001,4.690983882569899,2.5448029639767924,2.1592869821257747,0.6939381610767482,-0.28624582676958804,0.23154764435522204,0.6187882058119433,11.687714469933859,12.12063333078448,-4.31980721989133,-2.004142729135532,-8.618066946142191,0.02356377311328618,-9.129771092652561,21.499389441689942,22.11827441508607,0.0,0.0,0.0,0.0,0.0,0.0,0.0,0.0,0.0,0.0,0.0,0.0,0.0,0.0,0.0,2312.8698570127635,2236.0447189420975,2287.366810818736,2289.5901768188264,2299.113935602198,2253.2202276409434,2292.517406589409,2282.163189130188,35.191528482273,-2.1970596726487495,-8.202519210067376,0.222334483682899
149,1.500000000000001,4.807381419967666,2.667029981197863,2.1172317112862853,0.700121716539585,-0.2663683477573217,0.19511963914622119,0.6330922616508182,11.589759004762795,12.320232185441698,-4.087862023820635,-2.1012401536220544,-8.625032152745339,0.08826599643419882,-10.347720536383775,18.753001899023403,24.127899639856842,0.0,0.0,0.0,0.0,0.0,0.0,0.0,0.0,0.0,0.0,0.0,0.0,0.0,0.0,0.0,2275.6383496764415,2248.0423677287404,2282.7157436113475,2271.822984642149,2276.7044539960402,2248.292986669689,2278.366544969713,2272.5031952464046,22.211167416750776,-1.956392907665537,-7.390901208576599,0.27582479091166096
150,1.5100000000000011,4.922741882011873,2.7910878058326576,2.07755718159617,0.7045497418516948,-0.2464527013048944,0.1585433077271115,0.646324026206033,11.48053660840637,12.485410716410309,-3.845920959123879,-2.138998512056421,-8.42076593055662,0.15432206397930007,-11.419031758292064,15.051183847580418,24.65072622151654,0.0,0.0,0.0,0.0,0.0,0.0,0.0,0.0,0.0,0.0,0.0,0.0,0.0,0.0,0.0,2197.598137367488,2213.2243923094543,2237.8327963469083,2204.307058281077,2202.642655152644,2205.2617226521033,2227.015627558343,2206.9227539868184,9.502496787295012,-1.7009531040273937,-7.2712737118609985,0.3165456623751402
151,1.5200000000000011,5.036994491155406,2.9164488594590847,2.0400478337809598,0.7072074282511951,-0.22710800653839058,0.1231294667338893,0.6581175740050688,11.370440979784487,12.57418160190763,-3.6687313863883366,-2.0498209353711863,-7.923819596358034,0.2170286423827317,-11.023106116846648,6.349213113461261,15.53468602934771,0.0,0.0,0.0,0.0,0.0,0.0,0.0,0.0,0.0,0.0,0.0,0.0,0.0,0.0,0.0,1724.2104525313698,1812.8642220691113,1816.5657103581302,1756.3029895422628,1721.9075493176072,1775.6401684759344,1783.6169012710484,1742.596556689659,9.247035434040678,-1.637227995282503,-8.35530694318106,0.3421063338432477
152,1.5300000000000011,5.150187637674114,3.0422952436766195,2.0038104403480994,0.708378608953551,-0.20817785226940727,0.08940293040499805,0.6684824935901673,11.269828432620088,12.585181174350396,-3.5930505421954133,-1.8860141532631816,-7.625417529677601,0.2724101957296519,-9.810606131409827,-0.7836920121420121,5.0891091436429114,0.0,0.0,0.0,0.0,0.0,0.0,0.0,0.0,0.0,0.0,0.0,0.0,0.0,0.0,0.0,1103.0686156415313,1230.190930962254,1208.591111657328,1169.710922853799,1091.2389173932388,1187.3847377323946,1174.672639155067,1138.869322772565,8.850324586258965,-1.5131333969074814,-8.643828616572929,0.40827289673486594
153,1.5400000000000011,5.262393819331058,3.1680778485388017,1.9681172105617815,0.7084005048933132,-0.1882483393412994,0.05588485887076434,0.6779440758286311,11.171036118428011,12.569411028847883,-3.545598535697259,-1.7719344487883417,-7.995215422192542,0.32097778841062674,-9.991115014591045,-2.0675863659675997,4.81947078674283,0.0,0.0,0.0,0.0,0.0,0.0,0.0,0.0,0.0,0.0,0.0,0.0,0.0,0.0,0.0,1145.848760713575,1108.444982801562,1086.2426217698483,1191.0242263322793,1127.4165779395637,1129.959674105506,1114.294339589814,1160.2392924478588,6.58570192516796,-1.0415120766427228,-9.657940829288947,0.467668525081864
154,1.5500000000000012,5.37360139350968,3.293645485296891,1.9328992756311696,0.7072792913820956,-0.16643368429916086,0.02152193188026993,0.6867260291854308,11.070145236063974,12.542231893869166,-3.4978893420526305,-1.6505721506244972,-8.293283973630832,0.36916395305968464,-10.184649971577642,-3.215760155040215,4.834286166985446,0.0,0.0,0.0,0.0,0.0,0.0,0.0,0.0,0.0,0.0,0.0,0.0,0.0,0.0,0.0,1126.1709078198467,1073.5667879515797,1057.0565116558942,1177.2762395267684,1118.1063525423874,1083.3211196862967,1076.0286615619775,1154.890414158996,4.399831289361801,-0.641821890318377,-9.999999979079886,0.49660972143372023
155,1.5600000000000012,5.483804780041245,3.4188687350821034,1.8980963885751267,0.7049339842135072,-0.1418377500523827,-0.013894057521627014,0.6948072291841346,10.970799158613092,12.50014624952129,-3.464852275818221,-1.360319304394659,-8.959233465781345,0.41010163531918015,-9.910600737256914,-4.756327833106866,2.9624893974284916,0.0,0.0,0.0,0.0,0.0,0.0,0.0,0.0,0.0,0.0,0.0,0.0,0.0,0.0,0.0,991.4058613512883,903.3825370404825,823.1172725480258,1096.72297210115,972.1291588512307,914.2827070802556,879.7469238182294,1050.1005688366627,4.008632584139841,-0.5358937611327417,-10.0,0.5209798397542267
156,1.5700000000000012,5.593030056896807,3.5436032886488116,1.863533727108155,0.7011883220231124,-0.11388229212021973,-0.05017533140234107,0.7020314784384829,10.87476543746814,12.444867043292776,-3.450253286656301,-1.0284899838021033,-9.445199456904847,0.4473995974867517,-9.51852555859034,-5.992832697806705,1.010476754520262,0.0,0.0,0.0,0.0,0.0,0.0,0.0,0.0,0.0,0.0,0.0,0.0,0.0,0.0,0.0,798.7354784447605,750.6530494313113,615.5533078215564,949.063550749643,789.281612493212,747.0053088023105,669.0249392550938,902.7916313223816,5.538545553854364,-0.5121307231736054,-9.999999999999844,0.5316242591755918
157,1.5800000000000012,5.701304409093056,3.6677348749572127,1.829069204912753,0.6958177516556197,-0.08343746816601098,-0.08662243737050865,0.7080765486378975,10.780241308318267,12.379998043693773,-3.4432859156433535,-0.8038140618597224,-9.696461266675728,0.4801389021662576,-9.424527933417082,-6.874169183836543,0.5699092405571093,0.0,0.0,0.0,0.0,0.0,0.0,0.0,0.0,0.0,0.0,0.0,0.0,0.0,0.0,0.0,740.4870650034126,728.7957489263466,644.6515402491808,861.2970496798509,742.7706591015436,726.331056827935,668.8239761852791,836.5119345003766,9.305751219549723,-0.24380087042197607,-10.0,0.562836925061827
158,1.5900000000000012,5.808626590047945,3.791172932986541,1.7947016092905115,0.6886933508258591,-0.05149361961756339,-0.12287882022934185,0.7127065814246258,10.683756249896248,12.305944955464,-3.4284196170836037,-0.6636335065519753,-9.836401240184237,0.5064504815241037,-9.722346286734407,-7.857622978875156,1.799243769344816,0.0,0.0,0.0,0.0,0.0,0.0,0.0,0.0,0.0,0.0,0.0,0.0,0.0,0.0,0.0,866.274334063039,859.7247576918189,828.4008543534137,925.1627048509259,875.6486608541867,865.9869062875485,844.7373832897742,919.6529505331272,23.806757932681798,-0.2625823780759591,-10.0,0.5880879076756089
159,1.6000000000000012,5.914955049222596,3.9138060700702098,1.7605995149605604,0.6797853778212488,-0.018506224669108475,-0.1586089432581769,0.7158160118825527,10.580781143610183,12.217889171865343,-3.3873182511400604,-0.46647961348639183,-9.912363691499428,0.5282104498997221,-10.498071997652403,-9.521398361906463,4.939912467141649,0.0,0.0,0.0,0.0,0.0,0.0,0.0,0.0,0.0,0.0,0.0,0.0,0.0,0.0,0.0,1099.2380428224105,1133.7749606272603,1091.8105965503557,1168.3529096627883,1123.0867852452523,1137.781668872702,1118.2317197876941,1167.0393537352902,34.57795905625722,-0.3950974333585418,-10.0,0.6001369701195551
160,1.6100000000000012,6.020151376780363,4.035393130280942,1.7273143949448195,0.6691033801068332,0.01524914383897492,-0.19357816178284573,0.7173532084144904,10.453750385655596,12.090770061502411,-3.25099191183827,-0.361795125813236,-9.953697563817354,0.5461755142185188,-13.573913458625242,-14.778787008475902,17.096828850093893,0.0,0.0,0.0,0.0,0.0,0.0,0.0,0.0,0.0,0.0,0.0,0.0,0.0,0.0,0.0,1776.7315427063377,1782.0061578554105,1780.1192395944681,1799.2072358849282,1811.8916498212996,1815.0192144342657,1815.6438166971757,1829.797100858848,36.61149491619947,-0.30326004388979266,-10.0,0.6192293599334275
161,1.6200000000000012,6.123943092613236,4.1554079541716495,1.6959245282891566,0.6566675347595504,0.04922905505522988,-0.22798539326748873,0.717207717044269,10.301472532563706,11.9014243311585,-3.01446965179559,-0.3608718860333222,-9.975288028897976,0.5624866700873903,-15.744411997408392,-21.461801056474883,25.764285770344397,0.0,0.0,0.0,0.0,0.0,0.0,0.0,0.0,0.0,0.0,0.0,0.0,0.0,0.0,0.0,2173.8313666129734,2161.371700939915,2178.471903624735,2172.2067915294383,2192.19499071126,2183.10983762101,2196.6907812776394,2192.4904133090863,38.893005022687916,-0.20267329762705644,-10.0,0.6188495654845324
162,1.6300000000000012,6.226163777081089,4.273253032243898,1.6670999630716492,0.6425097834297859,0.08318008901006087,-0.2618195542592448,0.715341017974489,10.142843766497778,11.660372930602488,-2.750595313087147,-0.31837596765812404,-9.986878668673908,0.5783662533390653,-15.735505971838037,-25.92480454211099,26.04945094289235,0.0,0.0,0.0,0.0,0.0,0.0,0.0,0.0,0.0,0.0,0.0,0.0,0.0,0.0,0.0,2248.542520852787,2244.7932371730567,2254.8837112102487,2254.2350752789825,2254.2136725936725,2247.77446144294,2260.241995261537,2256.299717616898,40.285016890596566,0.11389765479104125,-10.0,0.6299081595464363
163,1.6400000000000012,6.32680477762036,4.388463240185997,1.6409079947893137,0.6266561961498709,0.11711126832524837,-0.29483526677891264,0.7117999214116518,9.985917826830097,11.374383358822891,-2.4891027860318102,-0.25159849016348357,-9.99312889874324,0.5914552862699992,-15.4710376006566,-30.4189355605633,25.53748278678114,0.0,0.0,0.0,0.0,0.0,0.0,0.0,0.0,0.0,0.0,0.0,0.0,0.0,0.0,0.0,2316.7166658609653,2318.4911228603137,2321.3267974845844,2324.6072433819195,2322.3856942501634,2320.508981035137,2326.535414911765,2325.8694247640624,41.02549100569093,0.3598531640261058,-10.0,0.6467936597605949
164,1.6500000000000012,6.425898888553573,4.500599843417708,1.6172748707702032,0.6091110118473598,0.1511279167062297,-0.3267009977368439,0.7066898797323129,9.834060748985728,11.046387436994623,-2.2406040260852715,-0.07395554987653459,-9.99635532264542,0.6003737811653067,-14.826455267753502,-34.45233313947149,23.85940072518178,0.0,0.0,0.0,0.0,0.0,0.0,0.0,0.0,0.0,0.0,0.0,0.0,0.0,0.0,0.0,2350.069537861119,2370.376383222446,2354.9376444179243,2375.9920736989025,2357.6731592011924,2367.469239588137,2362.283246328418,2372.733196083314,42.080373119247824,0.2372552799906235,-9.999999999999998,0.6719700355083613
165,1.6600000000000013,6.5235146462136,4.609268546885799,1.5960200364884967,0.589865070407739,0.18535455103653717,-0.35707338729587484,0.7001439032141658,9.690778064102822,10.681717941262319,-2.014773514877264,0.13134424686323673,-9.997903742379721,0.6043575159318707,-13.844148998796157,-37.90801335010663,21.306874397374553,0.0,0.0,0.0,0.0,0.0,0.0,0.0,0.0,0.0,0.0,0.0,0.0,0.0,0.0,0.0,2369.126643067402,2394.9051021326577,2375.8364759744254,2402.068906229993,2375.3632371940457,2391.0637781480555,2382.0472664831887,2398.195647937811,43.23576191600649,0.3600071507605569,-9.911106665903104,0.6460907537871121
166,1.6700000000000013,6.619749528684833,4.714116197261171,1.5768937649858028,0.5690074971570958,0.21951950540370108,-0.38607875367485045,0.6920873144966654,9.558124900531794,10.282288503719295,-1.8152040372082974,0.19107560623540948,-9.998679377546917,0.6065736343557292,-12.718054880034302,-41.32198855461766,18.57995888970443,0.0,0.0,0.0,0.0,0.0,0.0,0.0,0.0,0.0,0.0,0.0,0.0,0.0,0.0,0.0,2409.4263714311282,2411.420960816815,2419.655760447394,2422.0377116176483,2410.7494620885373,2413.0727581020546,2421.0830864429377,2423.761443674191,44.452200934209145,0.26159207740021106,-9.254563511706257,0.6482678230515937
167,1.6800000000000013,6.714717028695632,4.814800289646813,1.5596209399882734,0.5466832440058107,0.2532618537224337,-0.41381099770542984,0.6824634219871396,9.437540506734111,9.849321692950998,-1.6445790737323736,0.28305979958648236,-9.955858965318486,0.6052958853644329,-11.447741036446857,-44.569198213007866,15.55576493231503,0.0,0.0,0.0,0.0,0.0,0.0,0.0,0.0,0.0,0.0,0.0,0.0,0.0,0.0,0.0,2440.141992887048,2450.2477983078174,2451.154855597116,2452.2825096774955,2445.283895594112,2448.57915378429,2453.8385774222243,2452.8161379921808,43.20961636599854,-0.12502074802038482,-7.609121085668558,0.6291467157864986
168,1.6900000000000013,6.808545275081987,4.910996123919632,1.5438967812731312,0.5233671692761449,0.28586804570418756,-0.4398281325817712,0.6715038945224187,9.33046576212029,9.38511462738868,-1.5058840962550726,0.28788703310251806,-9.617081779882653,0.6021057168575745,-10.054384270928196,-47.54416665117667,12.266983439120915,0.0,0.0,0.0,0.0,0.0,0.0,0.0,0.0,0.0,0.0,0.0,0.0,0.0,0.0,0.0,2464.1165195786352,2493.927368970521,2507.8157918247816,2464.093733522536,2473.9173200646405,2487.62803394548,2500.2549298359477,2475.5491599174443,42.11250851497839,-0.26875308463897163,-6.170091286994429,0.6018066650551545
169,1.7000000000000013,6.901378039375944,5.00247061977172,1.5293624385273312,0.5004544452812384,0.3154165383120689,-0.4634034950302951,0.6597840225037179,9.238549869513214,8.908914253306545,-1.407895042259179,0.11923064387878776,-8.655618758455505,0.5998452299147222,-8.549799485614074,-47.94373838211463,8.015073459421096,0.0,0.0,0.0,0.0,0.0,0.0,0.0,0.0,0.0,0.0,0.0,0.0,0.0,0.0,0.0,2410.6797033213,2485.5113302521845,2523.544119041181,2379.766612464586,2427.616553416992,2466.3768688602336,2494.1133170489816,2408.552437536434,41.59269390182086,-0.045076972277244776,-5.135061750301912,0.5543208837278766
170,1.7100000000000013,6.993361763841713,5.089174279329204,1.5156055496582324,0.47935791002219474,0.3404276446848427,-0.48398545197018955,0.6481381759429815,9.160241681900587,8.431861682042555,-1.3495718036274784,-0.03556449966285513,-7.48975127204791,0.599882837400446,-7.298515921915438,-47.78860015884412,4.265599832087519,0.0,0.0,0.0,0.0,0.0,0.0,0.0,0.0,0.0,0.0,0.0,0.0,0.0,0.0,0.0,2362.6666189014895,2474.231511100219,2507.2504517209663,2328.3724236125377,2384.35438780002,2451.0532964521294,2477.4917735132813,2357.53471651322,37.467622243035876,-0.003897495819865031,-3.7201844241718747,0.6414308865966137
171,1.7200000000000013,7.084619682798566,5.171108804292767,1.5022605257471475,0.46045631110927904,0.3610950773930576,-0.5014037774197613,0.6373261195269898,9.093024182457306,7.955057359440026,-1.324431586302729,-0.02538345662774614,-6.394665682335143,0.5972084969205783,-6.277629542823959,-47.71867406438446,1.2120234819392728,0.0,0.0,0.0,0.0,0.0,0.0,0.0,0.0,0.0,0.0,0.0,0.0,0.0,0.0,0.0,2338.018395223958,2474.027681225513,2473.0598427807577,2325.3769186487043,2362.261780024393,2450.162390552935,2452.569939159542,2345.499828834383,31.583969881004247,0.09761664205709908,-2.3409549509226375,0.6391745525985187
172,1.7300000000000013,7.175252528737164,5.2483825604043615,1.489003390024638,0.4440175830788527,0.3776766196431793,-0.5155326846882707,0.6280404508547357,9.03483988529524,7.50503274879573,-1.3319269746224274,-0.008092216742386898,-5.137157855948923,0.5997311655979995,-5.4808175161262795,-44.019222458202556,-1.9306164398302794,0.0,0.0,0.0,0.0,0.0,0.0,0.0,0.0,0.0,0.0,0.0,0.0,0.0,0.0,0.0,2200.0928885087583,2362.9710837757175,2371.0496602493017,2205.2773466434724,2222.724723156523,2330.525088113888,2340.1741717661407,2227.277740409881,35.96993068370176,0.15223153942406678,-1.4625046741959866,0.6295181517663343
173,1.7400000000000013,7.265335835073091,5.321401515765179,1.4755243062739658,0.43051642837311543,0.39003460217736635,-0.5263553811738582,0.6208692509011234,8.982580131424648,7.107047050066911,-1.3677559828240289,0.04576409306597399,-3.8259495352826707,0.6043262276389357,-5.019253098042853,-38.254589368314385,-4.462441948415385,0.0,0.0,0.0,0.0,0.0,0.0,0.0,0.0,0.0,0.0,0.0,0.0,0.0,0.0,0.0,2000.2793471274863,2194.035040862813,2195.2918765166696,2013.2610734716243,2024.2966756886117,2155.363439025014,2159.461287315621,2033.393092948223,39.11508091884974,0.19262199088353582,-0.6084959701576436,0.6111852707293716
174,1.7500000000000013,7.354923513667317,5.390454315818722,1.46161552747549,0.4198814534508796,0.3986317048337411,-0.534241738084917,0.6159367615570034,8.93592806846563,6.698137953481303,-1.4151182649463747,0.09654205747830168,-2.7314391288322226,0.6071017714583644,-4.42379579803287,-41.86243495957065,-5.083750370607376,0.0,0.0,0.0,0.0,0.0,0.0,0.0,0.0,0.0,0.0,0.0,0.0,0.0,0.0,0.0,2143.3370337178826,2305.8414037379466,2303.5738796394858,2154.492887369146,2175.709854083465,2288.5317939169427,2288.3641388984443,2183.9261752962816,39.06699522882969,0.19232392416497246,0.2538778581672134,0.6229702915486881
175,1.7600000000000013,7.444073416571395,5.455255433152773,1.4472027707226445,0.41183713735500177,0.4040432469520565,-0.5396923887200142,0.6130834791815566,8.894895788734742,6.257900043443688,-1.4683001055507916,0.14133429530484873,-1.7441979054679286,0.6075958676015858,-3.898838975739949,-44.762192908971876,-5.572662910622084,0.0,0.0,0.0,0.0,0.0,0.0,0.0,0.0,0.0,0.0,0.0,0.0,0.0,0.0,0.0,2254.5243821440913,2393.253243364882,2388.1365831370604,2261.5988502758964,2281.401226112234,2377.9075624565176,2374.3827338454257,2286.2811836157375,39.364966027379474,0.17855415721910958,0.9975165814757352,0.6160282227548017
176,1.7700000000000014,7.532833466786365,5.515597946007963,1.432230817647769,0.40626901764551787,0.4065526277416101,-0.5430181775292207,0.6122023399584335,8.85756603246645,5.810962164435754,-1.5268132642986867,0.16469553616087504,-0.8126073240117923,0.6084643065136653,-3.6193692941495215,-44.580498034524574,-6.024543314047337,0.0,0.0,0.0,0.0,0.0,0.0,0.0,0.0,0.0,0.0,0.0,0.0,0.0,0.0,0.0,2263.146079397015,2390.0485095200916,2389.1998825048595,2268.974805448114,2283.2345197450154,2371.5305174880086,2371.214596656769,2288.5211917470556,40.199946348016155,0.13883458392942158,1.5964321278594387,0.6122895508597962
177,1.7800000000000014,7.621232146613401,5.571476824879871,1.4166583312911778,0.40305782600193607,0.40636768897796594,-0.544488279685821,0.6131412590407493,8.822439959282487,5.36495708363029,-1.5878064644477248,0.1706373629600461,0.029633446101571953,0.6094127845245031,-3.4491740259881,-44.52465767648839,-6.114569358916189,0.0,0.0,0.0,0.0,0.0,0.0,0.0,0.0,0.0,0.0,0.0,0.0,0.0,0.0,0.0,2279.471093305629,2392.5668402936385,2392.796976713155,2281.688664042538,2297.3599772210328,2376.624273617046,2376.5638392374253,2299.6809399821627,40.63642266254858,0.04793887066850819,2.09703021566973,0.6101782606565738
178,1.7900000000000014,7.709286762370696,5.622883808982404,1.4004787157215313,0.40197952688654076,0.4037655893016918,-0.5443900526147355,0.6156502899163259,8.788607193396121,4.915863399185341,-1.6476687659289178,0.1553495084115768,0.7572519494397811,0.6100801439237752,-3.362903454824817,-44.964733576174254,-5.855217988734118,0.0,0.0,0.0,0.0,0.0,0.0,0.0,0.0,0.0,0.0,0.0,0.0,0.0,0.0,0.0,2313.2527274350064,2407.8589863689563,2410.1901873402103,2311.67943170499,2328.4645208605148,2395.779051858683,2396.8568016910217,2328.1117633402273,40.76119312116991,-0.059439505578597035,2.510134088419063,0.6060666444794021
179,1.8000000000000014,7.7970045775316965,5.669788066369846,1.3837180448144482,0.40278489420744157,0.3990156145161004,-0.5430269053372097,0.619413148432072,8.754856375648156,4.464956039113835,-1.7036167951966177,0.1058224579416055,1.3793978981631363,0.6105421641887442,-3.412580559702505,-45.04249866538235,-5.3555615975815485,0.0,0.0,0.0,0.0,0.0,0.0,0.0,0.0,0.0,0.0,0.0,0.0,0.0,0.0,0.0,2336.8266145787816,2411.8192179918465,2418.766973105599,2329.535485292818,2348.1485863471044,2402.274213573677,2406.2282869235432,2343.989496789313,40.769568561015866,-0.16413413746118016,2.813730744234253,0.601153442535135
180,1.8100000000000014,7.884379626529877,5.712188806053197,1.3664265418628043,0.4052419228012141,0.39234629108186136,-0.5406778583904873,0.6241080237626802,8.719834697598907,4.015646459587981,-1.7535160108723615,0.030462896308024782,1.9042272953477772,0.6104430210959775,-3.596334532224077,-44.789521730383974,-4.6645262806630505,0.0,0.0,0.0,0.0,0.0,0.0,0.0,0.0,0.0,0.0,0.0,0.0,0.0,0.0,0.0,2349.8511344620388,2407.9752117247713,2418.2161806405616,2337.8285668300064,2358.13641743714,2400.3601869150434,2406.634715332126,2350.27942365863,40.72604028282045,-0.28095082049322384,3.009486385950847,0.5969180941755183
181,1.8200000000000014,7.971392917989286,5.750113215923005,1.3486736997851876,0.40909404442342634,0.38400338771853487,-0.5375781541238726,0.6294387891183242,8.68231365765951,3.569911495683936,-1.7956283286814267,-0.058195321971450144,2.325386341004039,0.6094001035925799,-3.896345069058782,-44.38738671738118,-3.818281165371973,0.0,0.0,0.0,0.0,0.0,0.0,0.0,0.0,0.0,0.0,0.0,0.0,0.0,0.0,0.0,2358.2995380610078,2401.2648914874367,2412.7759770397593,2343.669216691909,2363.995192147937,2395.718760293005,2402.9724638235334,2353.8635718392475,40.62863669465632,-0.4090536048077059,3.110117711095844,0.592389328793199
182,1.8300000000000014,8.058013984453753,5.7836025207108825,1.3305443463667828,0.41405902783117204,0.37426265096494443,-0.5339497262188532,0.6351222555028354,8.641223384254513,3.12875283675425,-1.8286365633933117,-0.15974096994412187,2.6411588580949044,0.607257784800375,-4.2971453582154595,-43.90192069361021,-2.8610125834571676,0.0,0.0,0.0,0.0,0.0,0.0,0.0,0.0,0.0,0.0,0.0,0.0,0.0,0.0,0.0,2365.0683209277236,2392.6692735583347,2405.6510238384626,2348.189526442004,2368.145896063677,2389.4452478349017,2397.658360813307,2356.350523008853,40.53454606679152,-0.5490399207667097,3.1352844490392844,0.5871902792328975
183,1.8400000000000014,8.144202352763747,5.81270665378129,1.3121340806095447,0.4198608035903055,0.36340238844877165,-0.530016044836801,0.6408889154087354,8.595629335751738,2.693006868479325,-1.8517117385645006,-0.2731917272232417,2.8565839923349725,0.6039056577855757,-4.785672369534311,-43.33210511776464,-1.8426902609656182,0.0,0.0,0.0,0.0,0.0,0.0,0.0,0.0,0.0,0.0,0.0,0.0,0.0,0.0,0.0,2369.878474858501,2382.6669558550984,2397.2665519338266,2350.9191569916884,2370.5369956236236,2381.6123525183534,2390.9548924724086,2357.208506144893,40.42302011789273,-0.691324922796551,3.086928821127474,0.5810822976717855
184,1.8500000000000014,8.229908896496656,5.837482437565829,1.2935446317687196,0.4262501233479523,0.3516835121933897,-0.5259908948175145,0.6465006714352645,8.54473601151012,2.2631352029902336,-1.8644340065416998,-0.3983896945489137,2.9834944885685073,0.5992472717818436,-5.348153112219478,-42.73053660578885,-0.7989745006213855,0.0,0.0,0.0,0.0,0.0,0.0,0.0,0.0,0.0,0.0,0.0,0.0,0.0,0.0,0.0,2373.9554435773643,2373.267698917134,2389.652647677797,2352.958877203109,2372.58832784536,2374.1820518916675,2384.8133440770134,2357.777150107192,40.25825758176888,-0.8111588794276002,2.961752835020187,0.5747675469602359
185,1.8600000000000014,8.315077138312148,5.857990639386632,1.2748799656197718,0.4330045703930222,0.33935035032233063,-0.52207250769731,0.6517581441466672,8.48786571927495,1.8395634801821676,-1.8667830072344151,-0.5309783219199826,3.0286413287439213,0.5932517014203764,-5.973122116463614,-42.08301107029988,0.2293897948639767,0.0,0.0,0.0,0.0,0.0,0.0,0.0,0.0,0.0,0.0,0.0,0.0,0.0,0.0,0.0,2376.697208925782,2364.1163054515055,2381.7457268457442,2354.3593336993813,2373.5456192543206,2366.730912318711,2378.3871001930365,2357.6607635691216,40.09298149101013,-0.9297364316582919,2.7847595631826016,0.5682278638626406
186,1.8700000000000014,8.399644473212302,5.874297451062305,1.2562421345551564,0.4399045455591817,0.32665992652762255,-0.5184325797670963,0.6565096674332916,8.424478561773189,1.42297016193213,-1.8591631296312694,-0.6576664884330353,2.9941739660423807,0.5860938103713903,-6.6445025989310125,-41.361175417099716,1.2001917249431227,0.0,0.0,0.0,0.0,0.0,0.0,0.0,0.0,0.0,0.0,0.0,0.0,0.0,0.0,0.0,2376.60547681166,2354.585041878158,2371.4949213182135,2355.2207919559132,2372.021234602931,2358.457537189828,2369.9672869378946,2356.557844347525,39.932071553868745,-1.0476565977794252,2.5686586079075173,0.5604838642988272
187,1.8800000000000014,8.483543758741893,5.886474880752138,1.237727666953382,0.44674725350706024,0.3138636115202621,-0.5152174137202058,0.6606493331918369,8.35420703349015,1.0137181220962033,-1.8422364309112431,-0.7807559314009744,2.8935553884805416,0.5780769540861929,-7.345604481891144,-40.6194123323913,2.095937100698775,0.0,0.0,0.0,0.0,0.0,0.0,0.0,0.0,0.0,0.0,0.0,0.0,0.0,0.0,0.0,2375.75862746213,2345.478776726069,2362.081491524986,2355.1398270042846,2369.9546826660626,2350.5610956215132,2361.912094212296,2355.1375537551685,39.803176752957256,-1.161718352188705,2.329498569929503,0.551876793000551
188,1.8900000000000015,8.566704925144423,5.894596953840881,1.2194255150918636,0.45337283019791047,0.3011706191062024,-0.5125603500702088,0.6641018164117821,8.276827189242283,0.6119052100269017,-1.816856993329563,-0.9012983736491774,2.739333583206393,0.5694176435858352,-8.063515883049988,-39.87372994895488,2.8980580065933736,0.0,0.0,0.0,0.0,0.0,0.0,0.0,0.0,0.0,0.0,0.0,0.0,0.0,0.0,0.0,2374.384589306052,2337.1840263262543,2353.6947845419836,2354.1576241091207,2367.624349501322,2343.2513363697776,2354.5916096074297,2353.1220675069844,39.68126206402951,-1.2685018342263414,2.065485223462705,0.5420957195369371
189,1.9000000000000015,8.649056203294814,5.898737345702359,1.20141546302088,0.45966074619411473,0.28874779786099514,-0.5105716660354294,0.6668232760488356,8.192215572484786,0.21733664880779463,-1.7839841063908843,-1.0186295308873345,2.54583895778185,0.5603180869345642,-8.789999141104232,-39.15829905781065,3.600772382451378,0.0,0.0,0.0,0.0,0.0,0.0,0.0,0.0,0.0,0.0,0.0,0.0,0.0,0.0,0.0,2372.994771551802,2330.7658659457543,2347.042589676073,2353.16568279509,2365.660023630941,2337.514806451047,2348.7763381991235,2351.4032800380633,39.5080670017445,-1.3339388738280376,1.7635379591675262,0.5321401525203598
190,1.9100000000000015,8.730525038426606,5.898967437128239,1.1837671238227556,0.4655171765140646,0.2767317850644111,-0.5093377153338146,0.6687962090532271,8.10034067685506,-0.1701831656075926,-1.74470570177967,-1.1309265141620963,2.319493532321641,0.5509636364866198,-9.515449688759503,-38.46053331822624,4.189170975314127,0.0,0.0,0.0,0.0,0.0,0.0,0.0,0.0,0.0,0.0,0.0,0.0,0.0,0.0,0.0,2371.2788188696986,2325.286622564578,2340.893342850482,2351.994719926767,2363.477785400079,2332.548558798418,2343.4007587556775,2349.494309084478,39.338868369670585,-1.3932459138525854,1.463036620942956,0.5222354703504681
191,1.9200000000000015,8.811039210521157,5.895358197599679,1.166538169216751,0.47084161018060505,0.2652739633538451,-0.5089135505124044,0.6700335070680693,8.001314454505732,-0.5504966463175677,-1.7003365902443288,-1.2220447710261266,2.057619238298695,0.5416571584826415,-10.221999100595625,-37.73707905284018,4.63814817304864,0.0,0.0,0.0,0.0,0.0,0.0,0.0,0.0,0.0,0.0,0.0,0.0,0.0,0.0,0.0,2366.939001124999,2319.6026161913423,2331.8346266390804,2350.8042116328334,2358.968951532618,2326.9003064008407,2335.6943714232607,2346.8281993592827,39.17852119729187,-1.4511992645410325,1.1751362485303292,0.5114215849691569
192,1.9300000000000015,8.890528302230965,5.887981453142414,1.1497729168907298,0.4755469381588731,0.2545112542953715,-0.509319930927804,0.6705761246901166,7.895369625020476,-0.9237331854309695,-1.6521745002703896,-1.299120633635879,1.7783747397146228,0.5327383726477533,-10.901569431746694,-37.042710078170394,4.961189615999784,0.0,0.0,0.0,0.0,0.0,0.0,0.0,0.0,0.0,0.0,0.0,0.0,0.0,0.0,0.0,2362.1832275189727,2314.4509173634315,2324.25834234237,2348.169314166533,2354.2249786146217,2321.7588409730442,2328.636742790317,2343.6747135578357,39.05878423319713,-1.4959242470929708,0.9090630767609096,0.5007004708336066
193,1.9400000000000015,8.968924589102631,5.876906193172304,1.1335031199478374,0.4795955735484823,0.24450987543273064,-0.510561883058263,0.6704696639047688,7.782807349325774,-1.2902671931215792,-1.6014461975416607,-1.367479643900215,1.4954991321836262,0.5243171771159862,-11.548786861018456,-36.38981635187544,5.163739711501192,0.0,0.0,0.0,0.0,0.0,0.0,0.0,0.0,0.0,0.0,0.0,0.0,0.0,0.0,0.0,2357.332949330453,2310.111129617841,2318.2829050961022,2344.2114324391496,2349.5705075526507,2317.2705910848154,2322.7531238500424,2339.623521511882,38.95197548046467,-1.5297276266092614,0.6558626071834374,0.4895474199737294
194,1.9500000000000015,9.046163422566044,5.86219649571457,1.1177488512696716,0.4829838957914313,0.23528684241118353,-0.5126171823352405,0.6697688277077292,7.6639294727971645,-1.650732900306814,-1.5492419067472916,-1.4250310304222586,1.2208100722545616,0.5164514949369611,-12.166140405564185,-35.808841036595986,5.263556990532381,0.0,0.0,0.0,0.0,0.0,0.0,0.0,0.0,0.0,0.0,0.0,0.0,0.0,0.0,0.0,2352.7230854819913,2307.9457003581224,2314.064740932946,2340.732220944245,2345.554434508473,2314.6306497748715,2318.579237489673,2336.1922361829606,38.78813357915893,-1.512035842742912,0.3834433832703013,0.47917155401624123
195,1.9600000000000015,9.122183268953505,5.843910089369559,1.1025196585423154,0.4857221975801729,0.22683810110154798,-0.5154400903875859,0.6685356653820114,7.539068851016599,-2.0056889384587717,-1.4966023806137856,-1.47185795816733,0.9561266935124539,0.5091395293233949,-12.748318068299014,-35.27782931198664,5.260755122341365,0.0,0.0,0.0,0.0,0.0,0.0,0.0,0.0,0.0,0.0,0.0,0.0,0.0,0.0,0.0,2348.370970154007,2306.520932297906,2310.3707841898945,2337.4036793227133,2341.713299804067,2312.745455825247,2314.9053194833546,2332.8576751772175,38.63481841480761,-1.4917359568502642,0.14583023001569512,0.4694898904468239
196,1.9700000000000015,9.196926517990526,5.8221013533372865,1.0878142054350515,0.487793176267984,0.21920113006069666,-0.5189682652074824,0.6668437759131006,7.4087002947261755,-2.355192051923422,-1.4446883111796065,-1.4898173398390364,0.6872435555569186,0.5024673635870303,-13.275491725495137,-34.73680009069646,5.138594266556273,0.0,0.0,0.0,0.0,0.0,0.0,0.0,0.0,0.0,0.0,0.0,0.0,0.0,0.0,0.0,2341.7098631929725,2304.1847870186843,2302.7322360408175,2334.7782838104117,2335.639495741339,2309.6572472009216,2308.244266616416,2329.1003774069472,38.49805980633122,-1.4763299230099394,-0.04688785876513846,0.4594704517944709
