,t,px,py,pz,qw,qx,qy,qz,vx,vy,vz,omex,omey,omez,accx,accy,accz,taux,tauy,tauz,jerkx,jerky,jerkz,snapx,snapy,snapz,bomex,bomey,bomez,baccx,baccy,baccz,mot1,mot2,mot3,mot4,motdex1,motdex2,motdex3,motdex4,f1,f2,f3,f4
1,0.02,-6.036600152345359,3.1145157776285743,0.5172019512642605,1.0,1.2165270103623684e-27,5.303110032292305e-28,3.800941958135414e-28,-2.1806422889205494e-25,-3.409791330742524e-26,-0.09787111417288741,-4.141282798647678e-26,2.3232383638905356e-26,-9.193392323964714e-27,5.328232190958658e-26,1.63534669467629e-26,-9.769592622734871,0.0,0.0,0.0,0.0,0.0,0.0,0.0,0.0,0.0,0.0,0.0,0.0,0.0,0.0,0.0,0.0,0.0,0.0,0.0,0.0,0.0,0.0,0.0,13.20193866285806,9.521584559187865,6.386398761683392,0.39212724147210615
2,0.03,-6.036599644808608,3.1145144921156804,0.5162051791435289,0.9999695807738609,0.007126289317307134,0.0031391107762013294,-0.000446666597843372,0.00027771886384523887,-0.0006760494901943048,-0.06604165394743956,3.6949367303428593,1.8708655233194604,-0.2360108264253013,0.09965229456999371,-0.23040455716612696,8.729658916294028,0.0,0.0,0.0,0.0,0.0,0.0,0.0,0.0,0.0,0.0,0.0,0.0,0.0,0.0,0.0,0.0,2220.200487287418,1073.1936625787748,1243.1192554865227,0.0,1956.6670087570662,1387.331305685268,1143.6778173043788,13.20193866285806,9.521584559187865,6.386398761683392,0.39212724147210615
3,0.04,-6.036585371984761,3.114484720180572,0.5158630096561133,0.9992770169741282,0.03318159011544274,0.018474618829899356,-0.001764620012561898,0.003246488207483201,-0.006386135543511643,-0.009164598357237524,6.477542075326108,3.9974911941346205,-0.25496930665175843,0.48815938635408385,-0.8833623350457528,4.190786357507244,0.0,0.0,0.0,0.0,0.0,0.0,0.0,0.0,0.0,0.0,0.0,0.0,0.0,0.0,0.0,0.0,1607.1519588376295,1220.2995735812333,1326.6017613618017,0.0,1510.9674989739774,1252.990767372706,1305.6588367729578,13.20193866285806,9.521584559187865,6.386398761683392,0.39212724147210615
4,0.05,-6.0365188352358965,3.114361352892118,0.5159469395270417,0.9966845049242145,0.06983858819734196,0.04166165311296252,-0.002622194209209863,0.011018994403024228,-0.019799633234094394,0.024613593576782552,8.00269248629321,5.166927546689142,-0.12362926015663789,1.0499677491936175,-1.7706592057695063,3.1539884199765673,0.0,0.0,0.0,0.0,0.0,0.0,0.0,0.0,0.0,0.0,0.0,0.0,0.0,0.0,0.0,723.7812179658063,1333.9733802810179,1247.6652570134036,1283.3164770802107,820.0687007592591,1297.7335928958448,1243.1237595391415,1277.2540756489823,13.20193866285806,9.521584559187865,6.386398761683392,0.39212724147210615
5,0.060000000000000005,-6.03634301402786,3.1140543992563687,0.5163474686869508,0.9913413219993069,0.11177056430333421,0.0688637590346106,-0.002739880217035166,0.02531619322977974,-0.043401443964593875,0.05508098465666687,8.756933882895932,5.754371064171786,0.006062876860322069,1.748907546023911,-2.8523708098715654,2.9221167821772283,0.0,0.0,0.0,0.0,0.0,0.0,0.0,0.0,0.0,0.0,0.0,0.0,0.0,0.0,0.0,941.594454273592,1240.1157107586102,1239.1224983447764,1252.019833601014,985.5182933183933,1219.4132673533093,1234.2701717070554,1245.6813105926276,17.44176772518587,3.316345961576757,2.8327852426179203,0.3062609184760305
6,0.07,-6.035988428330629,3.113456426471995,0.5170369095083199,0.9828638360948203,0.15614050600520535,0.09794905058269043,-0.0021921613449374226,0.04682334567600808,-0.07805126635156989,0.08206995499287484,9.134387206101882,6.060658009777961,0.1202840900357736,2.48121340393901,-3.9663950167083546,2.489165096373383,0.0,0.0,0.0,0.0,0.0,0.0,0.0,0.0,0.0,0.0,0.0,0.0,0.0,0.0,0.0,1046.1415102435208,1194.7460724863815,1223.08638349026,1230.534747097969,1068.238221896732,1186.0617922419783,1218.4668017833806,1225.080808192846,22.3938636233504,4.33839068186607,3.605585677292832,0.12136688027103137
7,0.08,-6.035344323542619,3.1123970876876306,0.5181345521592456,0.9731344879419935,0.1937530863430992,0.1243698778111056,-0.001069300541614988,0.08439574795953386,-0.1373524869498457,0.14090636108753404,6.141167651891728,4.570183049872657,0.12500921542200638,4.082598331291113,-6.3664638557341116,5.502688153616236,0.0,0.0,0.0,0.0,0.0,0.0,0.0,0.0,0.0,0.0,0.0,0.0,0.0,0.0,0.0,1661.6846498818466,835.4825494453976,1386.3882857091821,1337.6360739095603,1425.4639700870164,1216.1476854896478,1370.1246212575936,1386.4361504856683,24.708073231825153,4.032064289053051,3.579764376455003,0.18177958346689757
8,0.09,-6.034251123575652,3.1106386133304262,0.5199162291812817,0.9642612270296632,0.22161735754361506,0.14520998660317327,0.0003044229625890726,0.13759767482738144,-0.21919150403526771,0.2212671809790855,5.327853136772732,4.162915155007379,0.16626198896734745,6.080270038217317,-9.260345244313406,9.062200009751054,0.0,0.0,0.0,0.0,0.0,0.0,0.0,0.0,0.0,0.0,0.0,0.0,0.0,0.0,0.0,1663.991319624523,1364.3117953549413,1552.27509305705,1485.3939215737244,1658.3205424535763,1405.733723238045,1535.8639667406205,1516.9049513667887,25.506658693092497,3.272911500044186,3.1960719839117004,0.28052529972398704
9,0.09999999999999999,-6.032534633349423,3.107933016924538,0.5226296139220195,0.955387682276155,0.24550288282619273,0.16419123669349514,0.001987176913601646,0.20811244636009657,-0.3251235034796104,0.3231047006002,4.671910966931138,3.8758172814089473,0.18614588448693484,7.614943071556857,-11.317828453754064,10.377529046724232,0.0,0.0,0.0,0.0,0.0,0.0,0.0,0.0,0.0,0.0,0.0,0.0,0.0,0.0,0.0,1667.1473467997243,1539.034640019309,1624.7879084937617,1584.7407341983094,1665.0125641595976,1551.669890292185,1623.2410514858964,1594.0813754652365,26.35915222788297,2.3051772500506913,2.6432895851033877,0.3583695978162603
10,0.10999999999999999,-6.030049911237533,3.1040877392392945,0.5263832621088782,0.9467443751597496,0.2659023036095263,0.1815359932099186,0.0039668889335250125,0.290518175719107,-0.445891929211115,0.42725208236866985,3.9405269495644957,3.5319817083715823,0.21238798492116948,8.657457380369548,-12.54506116334586,10.229640426149045,0.0,0.0,0.0,0.0,0.0,0.0,0.0,0.0,0.0,0.0,0.0,0.0,0.0,0.0,0.0,1679.787888238892,1565.567424813365,1656.0181365358558,1627.7574333444445,1663.7885462269544,1588.1795898832597,1653.1305379532917,1633.1928647056682,27.385591714777906,1.195054181828738,1.9450306134414466,0.41746621294460096
11,0.11999999999999998,-6.026690446155798,3.098977109721654,0.531169008740597,0.9388665108552154,0.282400331924338,0.19682558163392594,0.006278354724299286,0.38297013286727843,-0.5779341235193379,0.5295785479960732,3.0847255136976597,3.0832008134361817,0.24490221796191705,9.634196967889697,-13.599000663910953,10.072219954765925,0.0,0.0,0.0,0.0,0.0,0.0,0.0,0.0,0.0,0.0,0.0,0.0,0.0,0.0,0.0,1710.9441639417062,1575.4694411596408,1686.8934782403876,1662.0703996026464,1687.9296537466043,1607.672782757003,1683.1573231531345,1667.7041139649461,28.063437058029972,0.7307707948030293,1.4395235010181615,0.37583655204654237
12,0.12999999999999998,-6.022357200613965,3.0924943235726,0.5369745454838454,0.9323653567199429,0.2944712462993731,0.20952753571136867,0.008929639976429489,0.4852492280007573,-0.7201640329266676,0.6315771116064862,2.097556620300175,2.5087444097593834,0.2795740504178003,10.598455744038226,-14.560252253351669,10.130174640686883,0.0,0.0,0.0,0.0,0.0,0.0,0.0,0.0,0.0,0.0,0.0,0.0,0.0,0.0,0.0,1752.0171105791096,1590.1788686577709,1720.0420801460505,1697.9368548283446,1724.3496542603161,1629.8681547142796,1716.7049528236962,1703.3085639208311,27.918586740718663,-0.011887995375629234,0.6880287303843522,0.3844641555053367
13,0.13999999999999999,-6.016956860599963,3.084547798172405,0.5438007705408988,0.9273901034778488,0.30268260886394255,0.21952773655735094,0.01176465658950275,0.596029522043223,-0.8701295487412938,0.73353741173055,1.4014041135024522,1.9773929217905544,0.3023373487345278,11.36242603087123,-15.205738245351208,10.10488994853942,0.0,0.0,0.0,0.0,0.0,0.0,0.0,0.0,0.0,0.0,0.0,0.0,0.0,0.0,0.0,1774.1731095521789,1629.518532034688,1726.780164691081,1719.4023851994996,1750.473291789469,1660.9371204874715,1725.5607431871367,1721.007284261952,27.10561400497863,-0.9523708495779568,-0.1292026249840108,0.37828944419792226
14,0.15,-6.010422952161339,3.075086010673417,0.551629830225098,0.9240299124593292,0.30754522614394975,0.22665428152023265,0.014577085614693534,0.7112687843503611,-1.022323029757188,0.8315773822393805,0.6681132565394631,1.327694218765012,0.3189741099795795,11.660006543993795,-15.243688824734702,9.637645537255878,0.0,0.0,0.0,0.0,0.0,0.0,0.0,0.0,0.0,0.0,0.0,0.0,0.0,0.0,0.0,1774.0097855100385,1624.77312857304,1715.2117236954957,1721.9210678713866,1748.6349781878127,1655.6762964914938,1717.088185457679,1718.7795773805599,26.44113591715644,-1.3917590751836206,-0.570856794083173,0.383396641211533
15,0.16,-6.002733613877328,3.064114911960433,0.560405085473462,0.9226238681706357,0.30878103103241095,0.2304787015839132,0.017292798287383077,0.8264513574507506,-1.1712096520999769,0.9224637543674545,-0.17787458567760445,0.5941348996915898,0.33218656678256997,11.510283495710372,-14.748077969941598,8.898792075738626,0.0,0.0,0.0,0.0,0.0,0.0,0.0,0.0,0.0,0.0,0.0,0.0,0.0,0.0,0.0,1760.792710746898,1591.9499282189413,1687.17724592276,1697.4650530430908,1730.867997182254,1627.273941768633,1688.2254825554094,1693.1657879074771,25.128806301677795,-1.6843758623175975,-0.920554190830756,0.3946164320730306
16,0.17,-5.993900448398225,3.051679153278135,0.5700604420943467,0.923050435904449,0.3067790996637213,0.23123401870243196,0.01988228811898953,0.9398498677560911,-1.3151148205618315,1.007987787202663,-0.797158851883833,0.01845887784295032,0.34141106021606366,11.277410689961908,-14.20508136827614,8.450802826378666,0.0,0.0,0.0,0.0,0.0,0.0,0.0,0.0,0.0,0.0,0.0,0.0,0.0,0.0,0.0,1731.4304250532382,1584.2407811243168,1665.8367267291694,1675.7601866757857,1706.1032762077073,1611.592187839734,1665.7057347211323,1673.2431182409207,22.886923221182325,-1.8891401197135815,-1.068901723053113,0.40638674633613464
17,0.18000000000000002,-5.983955063890166,3.0378431647236357,0.580538752404683,0.9248687891998499,0.3023866149989728,0.22952446362495868,0.022328869902927775,1.0483143233955983,-1.4506194522756573,1.0866202382093262,-1.247690272106569,-0.4464299740753135,0.35031343834425716,10.66305473211937,-13.238432689672619,7.695834242776645,0.0,0.0,0.0,0.0,0.0,0.0,0.0,0.0,0.0,0.0,0.0,0.0,0.0,0.0,0.0,1676.465036417943,1558.7625957363398,1624.6144593337972,1636.0762707771576,1656.4990142877389,1577.0773205913183,1624.267871642401,1631.8358065158889,23.69692312621377,-2.0037153562968246,-1.1800413680119504,0.4135769749227029
18,0.19000000000000003,-5.972968979265047,3.0227157923753163,0.591748036270415,0.9276567736170434,0.29625973576316555,0.22599515426983424,0.024683386609434293,1.1473019147499721,-1.5726176004371586,1.1533411944240817,-1.5731314008599262,-0.7514086761348698,0.3599054052752239,9.581666357495022,-11.741551736203393,6.356238723701502,0.0,0.0,0.0,0.0,0.0,0.0,0.0,0.0,0.0,0.0,0.0,0.0,0.0,0.0,0.0,1588.9441132696982,1501.6200068099624,1555.244074549775,1561.6440003820715,1573.0554680917703,1511.6499510324004,1552.0888107915405,1556.946228297799,25.90412487136229,-1.9709732138474731,-1.2436605213142549,0.4193957602618178
19,0.20000000000000004,-5.9610121166173515,3.006399095112804,0.6036175329088027,0.9310523895525492,0.28891987805921665,0.2212183560258183,0.027003535471670635,1.244192572763652,-1.6906659819266157,1.2217316994241352,-1.7902393317518712,-0.9627620379291589,0.36975898687841785,9.683588877138494,-11.743113962806584,7.099401506383662,0.0,0.0,0.0,0.0,0.0,0.0,0.0,0.0,0.0,0.0,0.0,0.0,0.0,0.0,0.0,1597.9294703667965,1538.9965110924593,1578.7085406241488,1582.1333102138954,1590.706909068315,1549.5311020563936,1579.919429603186,1582.5950150250092,25.777177005998254,-1.811472734461774,-1.2280414455585087,0.42442524338733506
20,0.21000000000000005,-5.948064085541075,2.98888054547248,0.6162409254722951,0.9347498619873026,0.2809068721554023,0.2155847058507635,0.029278990655881902,1.3463491331694621,-1.814008920314558,1.305800723263733,-1.8768588350512674,-1.1014380313786873,0.3793941753988567,10.35401073940423,-12.455857378560253,8.98726657942328,0.0,0.0,0.0,0.0,0.0,0.0,0.0,0.0,0.0,0.0,0.0,0.0,0.0,0.0,0.0,1655.5801323241276,1621.9869402205293,1646.3996633118068,1651.7747347069562,1654.863301962247,1630.4477410393722,1650.8766794903252,1653.7626764716442,25.655572159227795,-1.5967814861353087,-1.1572819666447713,0.4279744708581799
21,0.22000000000000006,-5.9340877145366395,2.970125332745136,0.6297550547264706,0.9384638001449612,0.2728052678534653,0.20945684254928243,0.03147717837040761,1.44847184530836,-1.9363435821991832,1.3975647300865155,-1.835950796639478,-1.1626883479253158,0.3885114259440097,10.089532165068915,-12.048820414462647,9.322849390460686,0.0,0.0,0.0,0.0,0.0,0.0,0.0,0.0,0.0,0.0,0.0,0.0,0.0,0.0,0.0,1644.2806744143686,1633.4528010354773,1643.9433933833755,1652.2152254659968,1644.283781282818,1633.9751558224673,1645.5148031897227,1650.0867538728749,26.079072742164005,-1.3320549873344134,-1.0574048589357015,0.43021077324822793
22,0.23000000000000007,-5.919105253394919,2.9501688127452996,0.6442003603218103,0.9419716769477764,0.2650998961084558,0.2031834420693085,0.033584129888206124,1.5474889248322403,-2.0542308070948945,1.491889897217492,-1.7068331861970998,-1.1584203195243954,0.3967889225247295,9.763890241914819,-11.60069493879723,9.547936192892958,0.0,0.0,0.0,0.0,0.0,0.0,0.0,0.0,0.0,0.0,0.0,0.0,0.0,0.0,0.0,1631.5661986679531,1639.833355403009,1638.9442927974965,1648.613673290327,1634.8102325306552,1636.8234131244562,1640.6149540877304,1646.106888696995,26.455389461290135,-1.0486859911044606,-0.9209823412890275,0.43030732793042015
23,0.24000000000000007,-5.903143095635202,2.9290481501784464,0.6596110056848798,0.9451258972413136,0.2581540479318159,0.19704470863966436,0.03559366091496518,1.6447061064041175,-2.1695852055740663,1.5911646669332915,-1.50859319031996,-1.1071379561168146,0.40396439088009817,9.638709410429103,-11.428902997000279,10.13711209095347,0.0,0.0,0.0,0.0,0.0,0.0,0.0,0.0,0.0,0.0,0.0,0.0,0.0,0.0,0.0,1637.5861082003316,1660.2701130448454,1650.3818313755667,1661.1555008381436,1644.1021943090086,1655.7141016122491,1653.1591445999923,1659.2730732800353,26.656764846864768,-0.7197440223508147,-0.7651674638193364,0.4299254096338574
24,0.25000000000000006,-5.886215203009249,2.9067821178132034,0.6760429769225549,0.9478352425429505,0.2522245379665492,0.1912701005058744,0.03750845362821251,1.7406319213065702,-2.283352917433776,1.6960716605893293,-1.2676089539730189,-1.013339812613069,0.4098056507596977,9.510653086904464,-11.285586452941754,10.678632786802922,0.0,0.0,0.0,0.0,0.0,0.0,0.0,0.0,0.0,0.0,0.0,0.0,0.0,0.0,0.0,1644.8606148763267,1678.1672375652117,1661.718794638022,1672.1886229188176,1653.0908236475098,1671.8763303157325,1664.3408831293182,1670.4489539524923,26.782363682569812,-0.370088959561706,-0.6007232283903061,0.4300797968081396
25,0.26000000000000006,-5.86833610147679,2.883386989333923,0.6935464151860212,0.9500375227713869,0.24752328371615098,0.18604862981668963,0.03932984475068401,1.8348831903244713,-2.39537667689435,1.805186290837936,-0.9811303061934286,-0.8888272047701749,0.414320534666868,9.33462196942969,-11.114458306565211,11.041535391741242,0.0,0.0,0.0,0.0,0.0,0.0,0.0,0.0,0.0,0.0,0.0,0.0,0.0,0.0,0.0,1647.700900954355,1689.6072609390185,1667.4637906446717,1678.3594719920081,1657.0758919130894,1681.687090355811,1669.9136709927466,1676.3440309881144,26.878086788546703,-0.02557022141626264,-0.4232655724999828,0.43059273960995237
26,0.2700000000000001,-5.849523730577834,2.8588801372155785,0.7121562328403984,0.9516922498155953,0.244230824105867,0.18151538083188049,0.04105280403281931,1.9272873718967187,-2.505749884858626,1.9171640017640423,-0.6626083216795373,-0.7445863202624885,0.41774318654721454,9.154637987528469,-10.968715581606059,11.285753903610418,0.0,0.0,0.0,0.0,0.0,0.0,0.0,0.0,0.0,0.0,0.0,0.0,0.0,0.0,0.0,1649.0033639608478,1697.1574795073818,1670.6207802799165,1682.4520200096426,1659.2575593967968,1688.1244193471243,1673.1883191353286,1680.147803822374,26.922260759709797,0.2992609243794603,-0.2482285376709411,0.42857673989639106
27,0.2800000000000001,-5.829796057735322,2.8332759619286625,0.7318961885873342,0.9527825015442751,0.24244959173968259,0.17776960418559642,0.04268100331518956,2.017983180969923,-2.61493606699959,2.031080132216043,-0.3316874286253916,-0.58357763812724,0.42036129682477347,8.99639932262808,-10.877632638988999,11.446475479062634,0.0,0.0,0.0,0.0,0.0,0.0,0.0,0.0,0.0,0.0,0.0,0.0,0.0,0.0,0.0,1650.3155261237346,1702.41615497632,1673.4129503925726,1685.1898638341697,1661.1010215906408,1692.7454650514744,1675.852876178717,1682.9585478097938,26.920859529897665,0.5819584284663544,-0.06429476379915453,0.4242887580469696
28,0.2900000000000001,-5.8091691333506486,2.806583754783721,0.7527810575340819,0.953312189618281,0.24219681130945464,0.1748730733688379,0.0442264844552258,2.1071757947502316,-2.723441398575602,2.145989197259264,-0.004874904424719592,-0.4157147076880304,0.4221089074777757,8.858834146881378,-10.835242580664595,11.508324622040433,0.0,0.0,0.0,0.0,0.0,0.0,0.0,0.0,0.0,0.0,0.0,0.0,0.0,0.0,0.0,1651.617649707743,1704.9550111335848,1674.7643024561542,1685.848297056068,1662.3228309310896,1695.1593261627404,1676.9138738533284,1683.7661402661788,26.897530011128193,0.8551896174316358,0.1177339229183624,0.41860480120264604
29,0.3000000000000001,-5.787656830335447,2.7788078613560057,0.7748159516907117,0.9533020368775709,0.24339972184099504,0.17286471968644798,0.04571203977648349,2.1951053968331964,-2.831755102049643,2.2609359294811067,0.29800755276732166,-0.2394774794276773,0.4228546865556885,8.74726467162823,-10.840214447698227,11.476553659790056,0.0,0.0,0.0,0.0,0.0,0.0,0.0,0.0,0.0,0.0,0.0,0.0,0.0,0.0,0.0,1652.6567304919374,1705.248661023585,1675.3916352055803,1684.0825608621053,1662.9531782807526,1695.6263372148612,1676.864261954281,1682.548034482558,26.84188982416979,1.105167288854055,0.2805996595613762,0.41371678424221303
30,0.3100000000000001,-5.765270206130169,2.749947673718634,0.7979971182946622,0.9527707563391011,0.2459657066242765,0.17176935631006654,0.047159784378889395,2.2821018605630514,-2.9403880827263524,2.3751255770259276,0.5857200726090357,-0.0603259631863617,0.4226026237458964,8.671707837681009,-10.896842193823808,11.371412426816274,0.0,0.0,0.0,0.0,0.0,0.0,0.0,0.0,0.0,0.0,0.0,0.0,0.0,0.0,0.0,1653.2675788923027,1704.6159476616447,1675.0218782092113,1681.7569639567628,1663.1641017532547,1695.2394431590824,1676.0441605658928,1680.6397015323475,26.76319858710129,1.3173147959563216,0.43782521434650007,0.410329087380917
31,0.3200000000000001,-5.74201685831657,2.7199976150246004,0.8223131847460117,0.9517358468686897,0.24980521509270093,0.17156964373479103,0.04858075386759877,2.3685061832086443,-3.0498018474736495,2.4877912548589975,0.853598438957066,0.11038798502940861,0.42160726854066355,8.628830346317784,-10.99590998807054,11.188709918073414,0.0,0.0,0.0,0.0,0.0,0.0,0.0,0.0,0.0,0.0,0.0,0.0,0.0,0.0,0.0,1653.3982881750485,1702.1636103714407,1673.3051220025789,1679.1354494189438,1662.5925123310979,1693.2625983197738,1674.1894740153816,1678.106774438583,26.668181292091585,1.4910425413189548,0.5811281291733509,0.4049779263083218
32,0.3300000000000001,-5.717901038526888,2.6889477848305803,0.8477452878113083,0.9502206951983677,0.25479479581926145,0.1722249749167,0.049988003111685865,2.4546527312722457,-3.1604074386049046,2.59822375754873,1.092029087398622,0.2746660110182504,0.4202744545627101,8.619168534222066,-11.133474241658448,10.938457951878089,0.0,0.0,0.0,0.0,0.0,0.0,0.0,0.0,0.0,0.0,0.0,0.0,0.0,0.0,0.0,1653.008981586337,1698.3224452253467,1671.3635919497162,1675.7207922295852,1661.3981904558368,1690.0365455521694,1671.8883094085948,1675.0059086658262,26.5442577519512,1.6067400719538147,0.721636719254145,0.3982017813898341
33,0.34000000000000014,-5.692923647951281,2.6567844294859744,0.8742679580932057,0.9482542285257508,0.26077906122522476,0.1736846188947823,0.05139895396696158,2.5408751062228685,-3.2725608155955137,2.7058106174372534,1.2965908613334325,0.4284710237081237,0.41857341713068413,8.642057569958173,-11.30324813381911,10.63036339912271,0.0,0.0,0.0,0.0,0.0,0.0,0.0,0.0,0.0,0.0,0.0,0.0,0.0,0.0,0.0,1652.7245843942237,1693.6784269058357,1668.8571972212387,1671.472809088312,1660.1496391848223,1686.2132108386627,1668.9657108465847,1671.1192659619812,26.435931733194224,1.6910167246367405,0.8572912072501793,0.38983366834451316
34,0.35000000000000014,-5.667082491099154,2.6234908297068227,0.9018496783473289,0.9458757723652654,0.26755793647146514,0.17589721766869854,0.05283883704203609,2.6274493021892935,-3.386482600863972,2.809935535647521,1.4544326752976842,0.5759589520373186,0.4163482092523138,8.690050132378335,-11.488147338835297,10.260733060282856,0.0,0.0,0.0,0.0,0.0,0.0,0.0,0.0,0.0,0.0,0.0,0.0,0.0,0.0,0.0,1652.024128715474,1687.8943410915988,1666.015351952859,1665.537086023674,1658.3522530100004,1681.3311536829892,1665.3890914617596,1665.8421671355306,26.322525358109246,1.7481513874062051,0.9643273622147037,0.3829381107961625
35,0.36000000000000015,-5.640372430676429,2.589048218865664,0.9304538122505686,0.9431251610024523,0.2749286515413863,0.17882063081714983,0.05433552465827717,2.714716453733922,-3.5024000535965976,2.9102529353351922,1.574425396785349,0.7176659590048942,0.4134592729729474,8.77505224673003,-11.696444498288994,9.867935380457826,0.0,0.0,0.0,0.0,0.0,0.0,0.0,0.0,0.0,0.0,0.0,0.0,0.0,0.0,0.0,1651.6493037448727,1682.8138166990989,1663.4721023082332,1659.8947810647824,1657.0660817089565,1677.1202508364145,1662.2310277523961,1660.8860075069983,26.210484503877005,1.7679809072348258,1.0635502913898618,0.37809268337062635
36,0.37000000000000016,-5.61278492152197,2.553435887420815,0.9600408390860793,0.9400420270412704,0.28272169782782447,0.1823849666084444,0.055903067256890863,2.8029834560255327,-3.620436340110941,3.0064617679495202,1.6620747827123987,0.841541627330138,0.4100897599489126,8.886956378822752,-11.910847670876024,9.44354252730184,0.0,0.0,0.0,0.0,0.0,0.0,0.0,0.0,0.0,0.0,0.0,0.0,0.0,0.0,0.0,1651.1924978185082,1677.1009294825012,1660.1958398552688,1655.1448622138182,1655.5024433867081,1672.3952867322912,1658.798837048938,1656.3255884799,26.10130640429442,1.766252914532139,1.1504296930268465,0.370706460697791
37,0.38000000000000017,-5.584308671704725,2.5166324311589263,0.9905683019775819,0.9366709334151101,0.2907739826293007,0.18650919671052424,0.05755321940218804,2.892504336102379,-3.740624788512761,3.098303167261599,1.7144127223271806,0.9533946804041609,0.4065908228999511,9.02289966939085,-12.125577423562461,8.996918019845701,0.0,0.0,0.0,0.0,0.0,0.0,0.0,0.0,0.0,0.0,0.0,0.0,0.0,0.0,0.0,1650.4062105034598,1671.2242201901252,1657.312944041514,1650.5801599861431,1653.7377132170895,1667.4264584979135,1655.612727245051,1652.104567595341,25.97748132268528,1.7213824599090672,1.2287113187897052,0.3615917212883257
38,0.3900000000000002,-5.5549299964752965,2.478616436046382,1.02199155830256,0.9330549576402389,0.2989382186842054,0.19112312902788534,0.05929870979605371,2.98350283863302,-3.862933438538882,3.185594023296739,1.7390064520937136,1.0527794168932103,0.4027776549470136,9.179681492408776,-12.334316525761224,8.534610285089617,0.0,0.0,0.0,0.0,0.0,0.0,0.0,0.0,0.0,0.0,0.0,0.0,0.0,0.0,0.0,1649.6629325857298,1665.940856405353,1654.104885378096,1646.005752016469,1652.1568326045483,1662.966026799713,1652.1427359699708,1647.8011173417808,25.896584928348013,1.6443347853586954,1.3046461940750065,0.34993299505178116
39,0.4000000000000002,-5.524633337968147,2.439367383206178,1.054264060691227,0.9292442391599163,0.30706011321858806,0.1961615330823641,0.06115458933778197,3.07612001553582,-3.987200722134065,3.2681180628216664,1.7272171012610098,1.1416832998341868,0.39834164099826,9.347287607609722,-12.521139562336803,8.050181985073124,0.0,0.0,0.0,0.0,0.0,0.0,0.0,0.0,0.0,0.0,0.0,0.0,0.0,0.0,0.0,1648.7118749194588,1660.2628800968982,1650.6105073216254,1640.519067495969,1650.277175069493,1658.1283031644248,1648.2428329808677,1642.7095262854475,25.822868193887693,1.5491642100560743,1.3513286853640902,0.3398877015094732
40,0.4100000000000002,-5.493401408488312,2.3988660865334714,1.0873382961529852,0.9252948386679101,0.3149771253881254,0.20157372203725557,0.06314195594695172,3.170603840736069,-4.113378007114554,3.3459740131958897,1.6816659376271803,1.2242472917121396,0.3929593881468392,9.54465979832353,-12.70805327040847,7.588933158330313,0.0,0.0,0.0,0.0,0.0,0.0,0.0,0.0,0.0,0.0,0.0,0.0,0.0,0.0,0.0,1649.0122128053315,1656.25021403492,1648.4461781526377,1635.839582458747,1649.8180951962522,1654.959208077652,1645.6363051951812,1638.6544402761026,25.728596266063178,1.4089898128976472,1.4088950279484609,0.3339551151513485
41,0.4200000000000002,-5.4612144338657105,2.35709401658867,1.1211681955876351,0.921264607496548,0.32255622035527926,0.20728944369710858,0.06526939724014186,3.267152549485995,-4.241318270314881,3.4192594994542373,1.6107895614465928,1.2882263195938342,0.38678683820402854,9.756869112305111,-12.873595225026513,7.133685592507266,0.0,0.0,0.0,0.0,0.0,0.0,0.0,0.0,0.0,0.0,0.0,0.0,0.0,0.0,0.0,1649.5314026117164,1652.022779941358,1646.029649797978,1632.5191681880642,1649.3566027109528,1651.6708730802638,1643.2104598408284,1635.4404271002581,25.63613496032249,1.2796891794207708,1.4618126039493793,0.3253380070686355
42,0.4300000000000002,-5.4280514486442915,2.314035172740798,1.1557078757296997,0.9172174762078613,0.3296541535789988,0.21325196260271653,0.06755620484518686,3.365808484661573,-4.370663563390597,3.4879217087533836,1.5035453847177673,1.3496317489109197,0.38040592159134795,9.969355853123751,-12.996408960542105,6.671079668719493,0.0,0.0,0.0,0.0,0.0,0.0,0.0,0.0,0.0,0.0,0.0,0.0,0.0,0.0,0.0,1648.587003832442,1646.9873713972586,1644.3460521120014,1628.2450250878094,1647.6518800487768,1647.2812818265586,1640.9717367858066,1631.7496392828616,25.535018113966974,1.1398763637980158,1.5005665417661689,0.3142310505423618
43,0.4400000000000002,-5.393891133848552,2.269677406329662,1.1909112850907686,0.913198543180526,0.33617479342094125,0.21943493303059317,0.07002313308622864,3.466631214289344,-4.501044177849119,3.5520249517619282,1.3859774094014394,1.406626121807669,0.37372702847158296,10.189492787079146,-13.084078252855846,6.220394359190529,0.0,0.0,0.0,0.0,0.0,0.0,0.0,0.0,0.0,0.0,0.0,0.0,0.0,0.0,0.0,1647.025528338666,1643.118717407829,1641.8493447545534,1624.3446522051333,1645.727306056866,1643.7849887287537,1638.229390381384,1628.0942690630588,25.488023440731492,0.9616909319909936,1.5486635830181965,0.2995267134830598
44,0.45000000000000023,-5.3587115845806235,2.2240122939670814,1.2267333069605393,0.9092418093966412,0.342069654675607,0.22580106499058908,0.0726743589194199,3.5696593636522813,-4.632064818849797,3.6116606536675824,1.2569427807442128,1.4541227038667157,0.3663684425508898,10.411564777915494,-13.130368070606302,5.7788316833651265,0.0,0.0,0.0,0.0,0.0,0.0,0.0,0.0,0.0,0.0,0.0,0.0,0.0,0.0,0.0,1645.371508412587,1639.2623678552143,1638.3095075308518,1620.4909662275984,1643.6616051683377,1640.3034059397546,1634.7577963662966,1624.161570690128,25.44788835080451,0.7666645438377182,1.5785358123879893,0.2869347036894713
45,0.46000000000000024,-5.322489908153026,2.1770345412112966,1.263130907190218,0.9053928432902703,0.3472530365692656,0.23232479837092548,0.07552692218072408,3.675100161419168,-4.7635514288608825,3.667221208423213,1.1017677586769907,1.5022526158704888,0.3578516822366558,10.661903866411748,-13.167457627021761,5.389079385262896,0.0,0.0,0.0,0.0,0.0,0.0,0.0,0.0,0.0,0.0,0.0,0.0,0.0,0.0,0.0,1645.6958221695836,1637.2842239925067,1636.9441475330818,1617.0905013480892,1643.6328210977003,1638.8197196070435,1633.0483381200318,1621.3419778309692,25.364325863164893,0.531856270245225,1.6336704573888439,0.27857609889583274
46,0.47000000000000025,-5.285201077337753,2.1287406931793638,1.3000652210341823,0.9017051349471225,0.3516265798771476,0.23897437672199232,0.07859926974360051,3.783104997798892,-4.895222294054574,3.719050269521487,0.9261533386369838,1.5406357903375811,0.3483815588832417,10.921720640088672,-13.168470461675241,5.028118968699591,0.0,0.0,0.0,0.0,0.0,0.0,0.0,0.0,0.0,0.0,0.0,0.0,0.0,0.0,0.0,1646.3193306958399,1634.883705637368,1635.9001697116246,1614.6586994605395,1643.5694140407925,1637.0731411983131,1631.83837146376,1619.199905332909,25.276121068658938,0.34030797355424647,1.6914714406625633,0.26690931833860293
47,0.48000000000000026,-5.2468197196486726,2.079131653113257,1.3374995231681335,0.8982329102466666,0.35507314550314006,0.24574065902770792,0.08192819290657934,3.8935853511338925,-5.026478300830067,3.7672292409533448,0.7194460259329675,1.5880880307758525,0.3385960386891788,11.166491066239459,-13.099536731378869,4.669434103294012,0.0,0.0,0.0,0.0,0.0,0.0,0.0,0.0,0.0,0.0,0.0,0.0,0.0,0.0,0.0,1644.652864007331,1631.0558933619955,1635.159543210568,1610.3421419028193,1641.4776965554713,1633.4844362000451,1630.3030479286324,1615.6736952286742,25.178827758306163,0.17058340866647126,1.729274097765235,0.25301262625381066
48,0.49000000000000027,-5.20732130237756,2.0282145035382,1.3753981942974691,0.8949889228453166,0.3575570234725721,0.25264701813440454,0.08554114318506699,4.006521641316427,-5.1567605021310365,3.811968345578121,0.5223763880216175,1.6403866187182505,0.32839262824004917,11.413883916445933,-12.980135349409672,4.337585880550332,0.0,0.0,0.0,0.0,0.0,0.0,0.0,0.0,0.0,0.0,0.0,0.0,0.0,0.0,0.0,1641.779723338786,1628.674358469082,1632.7579633343385,1606.7163517621962,1638.7757640826433,1630.896536019381,1627.7336400142428,1612.1768345349271,25.14738473229831,-0.053534716203070265,1.7909753057150513,0.2343880611363263
49,0.5000000000000002,-5.166681188199858,1.976001507037303,1.4137280867498179,0.8919584802421926,0.35913242941276663,0.2596865861597952,0.08942507834379358,4.121925563454493,-5.285567045330809,3.8535128729205748,0.33987257291982764,1.6846689715582408,0.31745512387076746,11.661439430839415,-12.811721014444721,4.02921042971105,0.0,0.0,0.0,0.0,0.0,0.0,0.0,0.0,0.0,0.0,0.0,0.0,0.0,0.0,0.0,1638.7446392441661,1626.247851683832,1628.4835653353427,1604.0101064970013,1635.847147975446,1628.3049657480972,1624.0131956232067,1608.8722375321802,25.120165943715953,-0.29292955321551173,1.8582344730545919,0.2192049233684278
50,0.5100000000000002,-5.12487367519121,1.9225086534837323,1.4524596090266237,0.8891521985620037,0.35976977983564584,0.26685997817699264,0.09359393867522055,4.240059044568054,-5.41271222017541,3.8923986935069674,0.1341157607103726,1.738326251224128,0.3051920381728118,11.946291334967718,-12.635429962814193,3.787039891718802,0.0,0.0,0.0,0.0,0.0,0.0,0.0,0.0,0.0,0.0,0.0,0.0,0.0,0.0,0.0,1638.6067091099983,1625.7319075585951,1627.5009553264947,1601.09096061918,1635.7275742146624,1627.9489723772201,1622.6698211399932,1606.6122734495,25.028878967168474,-0.5534657176500231,1.9665457578051186,0.20906200105728698
51,0.5200000000000002,-5.081870333903249,1.867753933346668,1.4915686040167193,0.8865922521292999,0.35937964973732717,0.27418828350708113,0.09808787390096915,4.361109929128417,-5.537866366392396,3.929066248085223,-0.0889529896587957,1.7985420296420487,0.29192067755745094,12.242731941615403,-12.415564566132353,3.5806880186268764,0.0,0.0,0.0,0.0,0.0,0.0,0.0,0.0,0.0,0.0,0.0,0.0,0.0,0.0,0.0,1638.3917698699279,1624.7393215326263,1627.7108009496494,1598.4602500411074,1635.2401466463878,1627.1603156999354,1622.304151954318,1604.7251579031195,24.917007397082415,-0.7662004244237732,2.093792777855491,0.1954599136641035
52,0.5300000000000002,-5.037642493954508,1.8117606716948849,1.531033540370395,0.8842831571236708,0.35786880781829317,0.28172878800190854,0.10296652091375552,4.484926187233309,-5.660282039870759,3.9635907121818033,-0.33146455830046706,1.8834853383154588,0.2784324073766283,12.514938098621364,-12.108300031421493,3.3718230907489044,0.0,0.0,0.0,0.0,0.0,0.0,0.0,0.0,0.0,0.0,0.0,0.0,0.0,0.0,0.0,1634.818514667656,1621.9267077312559,1627.542608483551,1593.5204107876493,1631.7816068312725,1623.9540435419678,1621.0868383754494,1600.7975549589198,24.798817127003353,-0.9337684054884374,2.185881526242795,0.17926965705330333
53,0.5400000000000003,-4.992163043284529,1.7545599997392296,1.5708335442126926,0.8821785567608752,0.3552266525132821,0.28957148351445766,0.10827453657598159,4.6114326508809125,-5.779240208629404,3.9961108364608915,-0.5569225934492349,1.9892811542836384,0.26463435763164905,12.785959664531,-11.734845556802043,3.180867646983998,0.0,0.0,0.0,0.0,0.0,0.0,0.0,0.0,0.0,0.0,0.0,0.0,0.0,0.0,0.0,1629.5361314651586,1620.061332259005,1625.2004773991114,1588.6877658396247,1627.211097524141,1621.283293495729,1618.3313566968222,1596.293346373737,24.763140200650604,-1.1762130779465516,2.3135037251103916,0.1572556649570756
54,0.5500000000000003,-4.945404870256362,1.6961894826229418,1.6109496202139615,0.8802096253080265,0.3515498832327453,0.2977413353875564,0.11399031676322988,4.740681348073346,-5.894162193313113,4.026839073034353,-0.7516275510922276,2.086729065064471,0.250180575511249,13.063536442420087,-11.307961698384439,3.0108795426206925,0.0,0.0,0.0,0.0,0.0,0.0,0.0,0.0,0.0,0.0,0.0,0.0,0.0,0.0,0.0,1624.7195217285623,1617.7289311322763,1619.9483757839894,1585.8910654471642,1622.7495187032594,1618.546425307196,1613.9240692509056,1592.5537670896838,24.763052972920967,-1.3702156629630105,2.4634984255386416,0.13584203114003207
55,0.5600000000000003,-4.897338868122148,1.6366908237308557,1.6513661423687245,0.8783498329552711,0.3468187866325402,0.30624838399451165,0.1201258818362229,4.873086656057275,-6.004845490357453,4.056304236222296,-0.9736311742299868,2.200305939069822,0.23425933306947538,13.397691497911701,-10.87195662679008,2.9073452692918167,0.0,0.0,0.0,0.0,0.0,0.0,0.0,0.0,0.0,0.0,0.0,0.0,0.0,0.0,0.0,1623.958744621171,1617.448106170376,1619.018848345919,1582.5726113101261,1622.167855548617,1618.3168962645668,1612.5545453022728,1590.0702151830471,24.690840735353927,-1.5138617452410532,2.6919291600822106,0.12069267108736445
56,0.5700000000000003,-4.847931136164243,1.576107569865233,1.6920732198139854,0.8765496058523472,0.3410049430366583,0.3151528380009979,0.12670874478336955,5.009084906228335,-6.1110171414789445,4.085013445864812,-1.1794265642011477,2.3321840107083824,0.21685681395692447,13.769769093426198,-10.400848556032294,2.845689567420706,0.0,0.0,0.0,0.0,0.0,0.0,0.0,0.0,0.0,0.0,0.0,0.0,0.0,0.0,0.0,1623.0586138358995,1619.3302450375322,1619.3285913113205,1581.0112122357355,1621.8225688819657,1619.6491422009938,1612.4817579219357,1589.1280032567224,24.569135884507972,-1.7288521701303619,2.9285461788871343,0.10343456365666123
57,0.5800000000000003,-4.797145756168241,1.514488230860322,1.7330634676624896,0.8746779550495953,0.33418069578830173,0.32460870931652586,0.13375695626233458,5.148583669254053,-6.21191972566584,4.112898886059255,-1.3520524729857761,2.51372914929747,0.19888052755485155,14.1166834362485,-9.83965975606882,2.7564804067417015,0.0,0.0,0.0,0.0,0.0,0.0,0.0,0.0,0.0,0.0,0.0,0.0,0.0,0.0,0.0,1616.5000931873626,1620.8739369314055,1618.8105379409758,1577.530114563445,1617.0475264198592,1619.0820644346459,1611.2771245587026,1586.268302286279,24.348341651043395,-1.9170357292049953,3.096244575135148,0.0832733512182871
58,0.5900000000000003,-4.744948703879429,1.4518897426386124,1.7743273128331374,0.8726321022917829,0.32630898583718454,0.3347568392851089,0.14132769850094892,5.291404327722285,-6.306713731383536,4.13969862942896,-1.549148708042597,2.721707070352998,0.1803424785526075,14.449149626778457,-9.195209519262448,2.642135207519658,0.0,0.0,0.0,0.0,0.0,0.0,0.0,0.0,0.0,0.0,0.0,0.0,0.0,0.0,0.0,1610.7073853544473,1618.6692337485606,1617.493096772986,1571.1410174681625,1611.6626148969171,1616.281658744819,1609.0165840870072,1580.8108483461835,23.980379669366794,-2.170516010255418,3.285899671620248,0.05581563713169077
59,0.6000000000000003,-4.6913083680089365,1.3883779141333115,1.8158519773047799,0.870371163368641,0.31734356739278013,0.34557136483406975,0.14942399411560656,5.437166027550019,-6.394425086585767,4.164987277075203,-1.7404902713240669,2.9071835446398375,0.16095596245551927,14.73082020745764,-8.44846202846039,2.477168797141438,0.0,0.0,0.0,0.0,0.0,0.0,0.0,0.0,0.0,0.0,0.0,0.0,0.0,0.0,0.0,1604.4790710645464,1611.0941983342266,1609.8828212474555,1564.3889751379807,1604.4473843897665,1609.3395937446287,1601.7817552947072,1573.2920746320624,23.985356031260743,-2.4246689051947743,3.472158008872925,0.02744662444889359
60,0.6100000000000003,-4.636199292254712,1.3240291925934504,1.857618939724389,0.8678815227613196,0.30719490475835953,0.3569774833335104,0.1580507175968179,5.585011827173961,-6.473908684774598,4.188049089455498,-1.965564958950079,3.0959904167904564,0.1396882852646458,14.914055706158003,-7.58310262880002,2.2351809312404214,0.0,0.0,0.0,0.0,0.0,0.0,0.0,0.0,0.0,0.0,0.0,0.0,0.0,0.0,0.0,1594.8300326953272,1598.7507829112835,1598.2311891937934,1550.3954263926473,1594.01150144776,1597.2472230222484,1589.4937507956674,1559.6126321669649,24.2385691199045,-2.679318883489036,3.701113657471275,0.005189536008499331
61,0.6200000000000003,-4.579595499237032,1.2589257356248336,1.8996100807411314,0.8651361851631005,0.29574586156555166,0.36892803985774614,0.1672299850356037,5.736478257754352,-6.545474986011658,4.210111470839934,-2.204877394649727,3.283431065463678,0.11627900375414328,15.34574370130759,-6.799266894339517,2.1890399779014302,0.0,0.0,0.0,0.0,0.0,0.0,0.0,0.0,0.0,0.0,0.0,0.0,0.0,0.0,0.0,1596.1909921258843,1597.9450713918623,1598.080678788633,1548.2536016484278,1595.4609322813267,1597.379483632164,1589.4657039913732,1558.6920906470539,24.23748399319052,-2.9774109717897503,3.9956259310791076,-0.016269929928097674
62,0.6300000000000003,-4.521449853175075,1.1931445353029386,1.9418236257904944,0.8620612367117392,0.2829168832880454,0.38142631634741553,0.17698142983727627,5.893671871141052,-6.609450454749612,4.232730293265853,-2.4515566304403995,3.4927149585652835,0.09151947006584063,15.973764670940582,-6.025510927136324,2.2812213048490904,0.0,0.0,0.0,0.0,0.0,0.0,0.0,0.0,0.0,0.0,0.0,0.0,0.0,0.0,0.0,1603.4040065086294,1606.0458346777707,1607.7814249843784,1554.8431895212118,1603.445965251703,1605.3924469215924,1598.9397005354872,1566.6004027951626,24.132408347286574,-3.248713716561185,4.244417110900047,-0.0407199659865316
63,0.6400000000000003,-4.461705639734995,1.1267665856545532,1.9842642023128267,0.8585375691901174,0.2685738241219958,0.39455487606522543,0.1873707369328698,6.055954442249056,-6.664541396973826,4.25532292350471,-2.725590533752826,3.745755193867682,0.06569786440709935,16.43931881203553,-5.07087546971885,2.2412743699051774,0.0,0.0,0.0,0.0,0.0,0.0,0.0,0.0,0.0,0.0,0.0,0.0,0.0,0.0,0.0,1601.9573753382956,1607.2408240522934,1612.1078621156992,1551.8756926937995,1602.3426236327737,1605.3957797228004,1601.4529981945327,1565.0127315406335,24.125500460260874,-3.40197558718377,4.418458339776643,-0.06909460600177862
64,0.6500000000000004,-4.4003177481184474,1.0598882907831184,2.0269267893316294,0.8544458788403345,0.2526317335397956,0.40832548610008057,0.1984181058839616,6.222277445815779,-6.7093100672979125,4.277023549344944,-2.9967632383727683,3.9945365315519163,0.03867471097146545,16.817906247094783,-3.9863471344334656,2.1295640414518147,0.0,0.0,0.0,0.0,0.0,0.0,0.0,0.0,0.0,0.0,0.0,0.0,0.0,0.0,0.0,1598.3136397758285,1603.8393122914706,1610.0307542018506,1547.9461659911683,1598.3024480657034,1601.9723561927603,1599.2222161467819,1560.8573291694715,24.17543649809972,-3.5172782382100376,4.530647851540541,-0.0998166181681875
65,0.6600000000000004,-4.3372458050329055,0.9926175170397338,2.069801891723126,0.8496811260792133,0.23524374136877743,0.4226179400609726,0.2099915304725411,6.392839815099189,-6.742923500113463,4.297855597158512,-3.2037377873883184,4.204400822086564,0.010256199956694806,17.252771789925347,-2.8375852831192816,2.043979051077116,0.0,0.0,0.0,0.0,0.0,0.0,0.0,0.0,0.0,0.0,0.0,0.0,0.0,0.0,0.0,1597.8251186008338,1603.6576378258703,1605.6460167523292,1551.9033453434593,1597.8787420487315,1601.9669923397341,1597.1329326275106,1562.507536549491,24.018707550848884,-3.619889831398786,4.629379412787285,-0.1266066856896164
66,0.6700000000000004,-4.272445508488073,0.9250692568370672,2.1128813881963664,0.8441800856120542,0.2166644754955741,0.4372402778491311,0.22189508228139618,6.567972620996591,-6.764692011311805,4.31789346937706,-3.363500433265768,4.365209881594644,-0.01961530402971432,17.70986637216332,-1.621218116036438,1.9580244994505946,0.0,0.0,0.0,0.0,0.0,0.0,0.0,0.0,0.0,0.0,0.0,0.0,0.0,0.0,0.0,1600.1617018298648,1604.7034990373375,1601.4555892517114,1559.1926766559955,1600.0691911325305,1603.284839395126,1595.535455375214,1567.2366933084813,24.32763588376269,-3.726757724297897,4.780255917209842,-0.1514607687540737
67,0.6800000000000004,-4.205876345900065,0.8573663941686446,2.1561533803655335,0.8379113257374252,0.19708478186198472,0.45201557973473844,0.2339746025457306,6.746310545120476,-6.773696088140868,4.3361475906850195,-3.4943445687635517,4.496194587268652,-0.05022817702934546,17.96785124794642,-0.3101325418226608,1.7360474766832112,0.0,0.0,0.0,0.0,0.0,0.0,0.0,0.0,0.0,0.0,0.0,0.0,0.0,0.0,0.0,1595.581901424013,1598.8392383091573,1592.8786166889843,1558.9873521441318,1595.0073124763092,1597.1611909118208,1588.0530128730095,1565.290130243405,25.161752553478582,-3.7705433390507155,4.8679039252504,-0.1784560034200424
68,0.6900000000000004,-4.137501294839535,0.7896386637341988,2.199602387199043,0.8308092689169435,0.1765934325148986,0.4668836297619282,0.24615116196074865,6.929614441115349,-6.769622448007415,4.353544649882017,-3.6133242233602654,4.6393713036640625,-0.0810218026928948,18.544598182216987,1.0171128195270995,1.6891522271516024,0.0,0.0,0.0,0.0,0.0,0.0,0.0,0.0,0.0,0.0,0.0,0.0,0.0,0.0,0.0,1603.4540039444266,1608.3349368688957,1602.1021364356932,1570.1840014615377,1604.26295050685,1606.6922515431652,1597.7998654398739,1577.4712701553558,25.531820378362177,-3.737090528218637,4.916099517426621,-0.2110527286237529
69,0.7000000000000004,-4.067252060407837,0.7220192797911552,2.2432294091073453,0.8228172201654237,0.1553216583147988,0.4817841690636585,0.25832347763458524,7.121728374191757,-6.751885623777608,4.3720197825509475,-3.6917993861198557,4.753076017622211,-0.11190990450663378,19.526302586340805,2.4235335296802774,1.8373392903878738,0.0,0.0,0.0,0.0,0.0,0.0,0.0,0.0,0.0,0.0,0.0,0.0,0.0,0.0,0.0,1628.9684134530817,1634.1375933448328,1625.9496608973016,1600.3049339767333,1630.6195853460142,1633.399427353295,1623.794428590664,1607.0104699535343,25.79869775125417,-3.7070803228040905,4.953504129901966,-0.24617773854618227
70,0.7100000000000004,-3.995043713076634,0.6546503628022007,2.2870413006741837,0.8139265043926653,0.13352043358779447,0.49661160970542206,0.2703199000581598,7.3208118701227765,-6.7193656950413905,4.390095570022134,-3.711010920033076,4.834045748354473,-0.14330232423637226,20.09741282564992,3.937989712768264,1.7091792725922872,0.0,0.0,0.0,0.0,0.0,0.0,0.0,0.0,0.0,0.0,0.0,0.0,0.0,0.0,0.0,1641.2348419345647,1647.174124939395,1633.765984656784,1617.6450998039393,1642.432961668843,1645.5568788748333,1633.0069083902029,1621.4367961150215,26.05448954389258,-3.6894926951550326,4.967061926048061,-0.2759922106637438
71,0.7200000000000004,-3.920820370584943,0.5876836183195975,2.3310243476312404,0.8041549018511085,0.11139512256010886,0.5112752321053723,0.2819993927905695,7.524459757900401,-6.6713719282725705,4.406045419266222,-3.705919277028743,4.894114171132807,-0.17543249316363832,20.49364584207236,5.503713775405927,1.4486768397823369,0.0,0.0,0.0,0.0,0.0,0.0,0.0,0.0,0.0,0.0,0.0,0.0,0.0,0.0,0.0,1650.2986937228357,1656.1947954344514,1638.8113444764992,1629.4310092661729,1651.4152733751241,1654.2595636560218,1639.0377221553838,1631.8325598036056,26.34814978582786,-3.6833549480577408,4.997523484056707,-0.30263577898099914
72,0.7300000000000004,-3.8445426212597087,0.5212759630644044,2.3751521511472506,0.7935451583977717,0.08904860247686926,0.52567826876201,0.2932895936301663,7.731542729024402,-6.607493558833218,4.418913703632313,-3.695015682860309,4.931120902057763,-0.20758840978432347,20.797718095709072,7.104438175467465,1.1062381308999392,0.0,0.0,0.0,0.0,0.0,0.0,0.0,0.0,0.0,0.0,0.0,0.0,0.0,0.0,0.0,1659.1645446813204,1663.0652706795856,1645.113763382036,1640.0551522614649,1659.7923458373252,1661.5078675553798,1645.9626035772274,1641.8184945299213,26.63450700011991,-3.6145235025058926,4.9577309285214355,-0.32848695457972954
73,0.7400000000000004,-3.766179533695806,0.4555880140178348,2.4193904706175053,0.7821290513972718,0.0665191521751423,0.5397525019594945,0.3041653924804231,7.941431956597855,-6.527377214089729,4.428047013387699,-3.6866639416066533,4.966069952584738,-0.2391073600465534,21.04840428136967,8.739815012147822,0.7040607390988995,0.0,0.0,0.0,0.0,0.0,0.0,0.0,0.0,0.0,0.0,0.0,0.0,0.0,0.0,0.0,1668.4005356864711,1671.0386293043323,1654.464343556363,1650.4358187193457,1668.9794854164797,1669.6511387213966,1655.276043193048,1652.3305274986585,26.857167181846172,-3.466151003106874,4.920325449299059,-0.35882053453156737
74,0.7500000000000004,-3.6857068581925527,0.3907835565737999,2.463698435013154,0.7699679032752724,0.04392718187834255,0.553417734586512,0.31456103010900904,8.153304031162536,-6.430775132344062,4.432716535505775,-3.6450758952851157,4.962176112387029,-0.26968078986266764,21.20498118645031,10.39055269031941,0.2249769686564207,0.0,0.0,0.0,0.0,0.0,0.0,0.0,0.0,0.0,0.0,0.0,0.0,0.0,0.0,0.0,1677.7735412122881,1678.4394473819127,1661.1423447865402,1663.0527156369692,1677.9138282678232,1677.529453783609,1663.3396024183287,1663.485936173836,27.129386746018177,-3.3435042582124623,4.929150263657632,-0.39076725044605165
75,0.7600000000000005,-3.6031109618830794,0.3270272688094694,2.5080269903923265,0.7571436942870111,0.02150790722463738,0.5666351566862363,0.32433845799626954,8.365850404735795,-6.3177903249412966,4.4320110489842826,-3.54668551138083,4.942740966163425,-0.2996106865387712,21.218643153400052,12.014695831850553,-0.35048819101390905,0.0,0.0,0.0,0.0,0.0,0.0,0.0,0.0,0.0,0.0,0.0,0.0,0.0,0.0,0.0,1683.9436677316542,1686.3138573585236,1664.5733774510466,1673.7920610025249,1684.6783390703404,1684.7228930406043,1668.1555400467066,1672.5826816884992,27.407195404000877,-3.2919455862548586,4.895577729306765,-0.41801976858275364
76,0.7700000000000005,-3.518389489468031,0.2644820870543361,2.5523186976073293,0.7436860199051621,-0.000606500468174087,0.5794564597915153,0.333408079027316,8.57833245061036,-6.188579916247898,4.425245720063411,-3.437441139976944,4.939114882527536,-0.329227474258512,21.18445052443718,13.626534665149848,-0.9852099367302358,0.0,0.0,0.0,0.0,0.0,0.0,0.0,0.0,0.0,0.0,0.0,0.0,0.0,0.0,0.0,1691.042292833729,1696.4378651067072,1672.075348748668,1682.7144468983913,1692.7842348436673,1694.0339619933964,1675.6312926793241,1681.6046909497397,27.75142255362619,-3.2748249377089147,4.859561571483616,-0.44216787140112773
77,0.7800000000000005,-3.431546363635421,0.20330926636414567,2.596509571212624,0.7296391150481853,-0.022442970220105052,0.5918570960720899,0.34180148143112804,8.790044374914297,-6.0433673619178405,4.411728632740111,-3.359910545117272,4.919173552333304,-0.3582299903921095,21.069813700975715,15.211281612954153,-1.6902861003273983,0.0,0.0,0.0,0.0,0.0,0.0,0.0,0.0,0.0,0.0,0.0,0.0,0.0,0.0,0.0,1700.8508020303932,1703.3668648770445,1681.239012610396,1691.2576000917259,1701.6937456239523,1701.8564847218056,1684.562292365371,1690.3891507404617,27.99991950391497,-3.166985478824777,4.779006311290342,-0.4652913263766203
78,0.7900000000000005,-3.3425920892763403,0.1436681637618138,2.640529180230573,0.715067806668605,-0.044080537265143764,0.6037451811952881,0.34960934524699916,9.000486175956045,-5.8822475034391974,4.390911945605913,-3.313493714494997,4.891702089479777,-0.38624924139415107,20.915884600556822,16.793942143643825,-2.4428635544619937,0.0,0.0,0.0,0.0,0.0,0.0,0.0,0.0,0.0,0.0,0.0,0.0,0.0,0.0,0.0,1712.9990393889475,1711.2238899536767,1693.2058797625723,1701.3580973508008,1712.9898759253242,1710.7910402621997,1696.1116116325857,1701.0539494348318,28.17412625774487,-2.9811826922014903,4.710568029421476,-0.49077012292817385
79,0.8000000000000005,-3.25154505299507,0.08571565588245368,2.6843010441173525,0.7000627236583182,-0.0654511938181018,0.6150661148828426,0.35682208240915847,9.20834042660965,-5.705785570165331,4.362051350034288,-3.2320067591124357,4.836939597640917,-0.4131104803092718,20.59819201138602,18.293091264947492,-3.2771621788443284,0.0,0.0,0.0,0.0,0.0,0.0,0.0,0.0,0.0,0.0,0.0,0.0,0.0,0.0,0.0,1721.12176140587,1717.6150905442034,1699.4548610374184,1711.5877949240655,1720.754627961939,1717.3321862475693,1703.2736632674978,1710.0599556751074,28.433194352478548,-2.839484870776633,4.72815677459507,-0.5156592192117992
80,0.8100000000000005,-3.1584387935019445,0.029600470818363714,2.72774102304225,0.6847262857069665,-0.08635491131085533,0.6258550347156281,0.36331559074107456,9.412115816738405,-5.514958351789243,4.324429118180255,-3.09510257686595,4.776382467380482,-0.43895275428790387,20.141373552997166,19.684503212949345,-4.178677679487208,0.0,0.0,0.0,0.0,0.0,0.0,0.0,0.0,0.0,0.0,0.0,0.0,0.0,0.0,0.0,1725.006492356075,1724.3580705338516,1702.1423334676722,1719.9502631403316,1725.5275007765547,1723.0591740429022,1707.0846268198966,1717.0242410670191,28.703796187253563,-2.8033526522996874,4.680208341732277,-0.5380471209666864
81,0.8200000000000005,-3.063317193566135,-0.02453703376333028,2.770759150598398,0.6690563631277686,-0.10673265886984856,0.6362377435788446,0.3690166068546462,9.611385711787603,-5.310315209207041,4.277617024678462,-2.9579535228645004,4.757163774564935,-0.4638843779336654,19.677844217079965,21.042157942227746,-5.116684000276095,0.0,0.0,0.0,0.0,0.0,0.0,0.0,0.0,0.0,0.0,0.0,0.0,0.0,0.0,0.0,1730.1717680661843,1734.5636118435368,1711.0361081363258,1726.7806043654214,1732.2120180325778,1732.0559660656804,1715.2038927690942,1724.7525404665564,29.062390213548113,-2.8230242335910547,4.581906324959737,-0.5574548728648077
82,0.8300000000000005,-2.96622704721232,-0.07656123792524049,2.813261193894698,0.6530513926155589,-0.12669260620815198,0.6462052109321509,0.3740209720045116,9.805725474698336,-5.0924061245580665,4.221133648794927,-2.8756443520486625,4.720927200547041,-0.48797040963695876,19.156804271592165,22.337745366447948,-6.1032790908504,0.0,0.0,0.0,0.0,0.0,0.0,0.0,0.0,0.0,0.0,0.0,0.0,0.0,0.0,0.0,1739.990448942914,1740.6385798972417,1721.0432203700966,1733.6377907297044,1740.7572673905684,1739.4460452098322,1724.5742809369895,1732.231276024531,29.25992215306694,-2.761110842955391,4.483152093709865,-0.5753323381978636
83,0.8400000000000005,-2.8672192584596825,-0.12634118144937714,2.8551484862484453,0.6367923963757659,-0.14635509037523195,0.6555897453437366,0.378520431733086,9.99487747239631,-4.861491180647249,4.15462262575044,-2.8460484382313096,4.65298454087534,-0.5110539179916274,18.620736926701298,23.623229945172852,-7.11701380856411,0.0,0.0,0.0,0.0,0.0,0.0,0.0,0.0,0.0,0.0,0.0,0.0,0.0,0.0,0.0,1754.3195010255674,1746.6935613608682,1733.0517933674334,1743.9345432725552,1753.195679661529,1747.6954807199627,1736.435945215444,1742.883828354649,29.38630344059463,-2.6415255825563935,4.360671083940733,-0.5953690434264074
84,0.8500000000000005,-2.7663514153262643,-0.17375173363244814,2.896318939426431,0.6203776545664633,-0.16570659515653965,0.664306416723091,0.3825831605504454,10.177458847792654,-4.61879606217327,4.077709918813669,-2.796227632949608,4.570593408295902,-0.5330055186676776,17.90388469956561,24.739202446699693,-8.168421792735359,0.0,0.0,0.0,0.0,0.0,0.0,0.0,0.0,0.0,0.0,0.0,0.0,0.0,0.0,0.0,1761.3575451123425,1750.9367082493739,1738.7695033992827,1751.520089596569,1759.7729757204424,1751.9940377387545,1742.3720539263063,1749.753135818208,29.64760789226466,-2.518650519733522,4.348120236224535,-0.612928716681693
85,0.8600000000000005,-2.663696383108571,-0.2186826562936032,2.9366672826665106,0.6039247937367556,-0.18461485470549727,0.6723702555426989,0.38614820780826026,10.352149863065861,-4.365789197269805,3.990183451555097,-2.709112172447748,4.467968793890328,-0.5540128012944728,17.07840046664444,25.715005137914027,-9.232489344538575,0.0,0.0,0.0,0.0,0.0,0.0,0.0,0.0,0.0,0.0,0.0,0.0,0.0,0.0,0.0,1764.937954121104,1754.8060105603556,1740.3306230287924,1758.024705722313,1763.6416687991782,1755.4251005214105,1745.010079208669,1754.9192395097448,29.90163753332283,-2.47906675766964,4.262019022663416,-0.6297937045091944
86,0.8700000000000006,-2.559334225640447,-0.26103378025261875,2.9760870898205676,0.5874407006371218,-0.2030265904033587,0.6799048244989432,0.3891311558423658,10.51893173783365,-4.102852458424054,3.891987974357369,-2.604246221101814,4.4135306395537,-0.5739372848373029,16.290992021840367,26.691912720484545,-10.304179262481394,0.0,0.0,0.0,0.0,0.0,0.0,0.0,0.0,0.0,0.0,0.0,0.0,0.0,0.0,0.0,1769.2864126843822,1765.0225065927323,1749.0821919048183,1765.14101890285,1769.8785242203187,1764.1786412934605,1753.1727233320312,1762.9127091113473,30.248112623297274,-2.564910657665059,4.0367062286994395,-0.645239075137363
87,0.8800000000000006,-2.453344514971899,-0.3007082603883041,3.0144709177872295,0.5709115468557185,-0.22099394407054096,0.6869408786012198,0.39157874260171704,10.677585690717478,-3.8306041343342776,3.782966631228684,-2.535650296030304,4.3401967186785475,-0.5928863071290831,15.458847350780403,27.58398865726841,-11.390446184400105,0.0,0.0,0.0,0.0,0.0,0.0,0.0,0.0,0.0,0.0,0.0,0.0,0.0,0.0,0.0,1777.5333820991266,1771.2916006334233,1757.6451454312057,1772.2379109112749,1777.2874205611586,1771.3270437290512,1761.5040435023066,1770.1687956635183,30.389921436261968,-2.622163568559933,3.83893656147588,-0.6584909526032422
88,0.8900000000000006,-2.3458094018523514,-0.33761519029993,3.0517099891759507,0.5544746450049598,-0.238589528259766,0.6932362853769317,0.39377196153128974,10.82800433549753,-3.5493638152255067,3.6630476493880932,-2.549302059415597,4.188084988716147,-0.6108953326571472,14.626894387548717,28.46915281897111,-12.47338382405605,0.0,0.0,0.0,0.0,0.0,0.0,0.0,0.0,0.0,0.0,0.0,0.0,0.0,0.0,0.0,1793.9565906109292,1774.262103206804,1767.3962232647134,1783.343347479543,1790.4143779459102,1778.011812350618,1771.9042638973401,1780.8449360505726,30.455276938809778,-2.8106362857079756,3.4465198708442566,-0.6755978996714803
89,0.9000000000000006,-2.236815976645702,-0.3716710688444123,3.0876965849575533,0.5382679529437782,-0.2558458977446331,0.6985938859281811,0.3959508428892669,10.969002924513518,-3.2607348579551263,3.532553848163845,-2.58291602825562,4.016092291268718,-0.6279499849865453,13.633808345112186,29.134243719333153,-13.508136494772227,0.0,0.0,0.0,0.0,0.0,0.0,0.0,0.0,0.0,0.0,0.0,0.0,0.0,0.0,0.0,1801.787615068041,1774.3956537504025,1771.9857797478965,1788.5681430439854,1796.7842091783318,1779.0936414999446,1776.029661241636,1785.9201221249293,30.557768948946343,-2.783020761827684,3.1940659286416495,-0.6863846488295481
90,0.9100000000000006,-2.12646460394296,-0.4028108893492835,3.1223278836742323,0.5224971471644528,-0.272763813148737,0.702740607373172,0.3984372876505843,11.099456240035055,-2.9663497729687323,3.3921282057839512,-2.6994625943313637,3.7298963358250554,-0.6443709611880941,12.548083634641216,29.665742798301586,-14.460974939911164,0.0,0.0,0.0,0.0,0.0,0.0,0.0,0.0,0.0,0.0,0.0,0.0,0.0,0.0,0.0,1812.0911638510136,1767.8221706618574,1771.4563573345165,1793.0720086963602,1803.4768990581158,1776.3105548348644,1776.721657341568,1788.9226830666937,30.49978467111778,-2.5140065231442708,2.914902523488572,-0.6950355125472302
91,0.9200000000000006,-2.014863156808603,-0.4309803973269335,3.1555089456483083,0.5073411007441804,-0.28923140808007525,0.7056364376203981,0.4012822173708852,11.218988321502582,-2.666738487995635,3.242650762797389,-2.734486522271701,3.4670310464617904,-0.6599266194065884,11.447734620231742,30.166132791916045,-15.327362621386786,0.0,0.0,0.0,0.0,0.0,0.0,0.0,0.0,0.0,0.0,0.0,0.0,0.0,0.0,0.0,1813.811603407483,1771.189520920721,1772.748287033872,1798.7031606946293,1806.462313673099,1778.254712985757,1778.4323325521539,1794.277728983351,30.037776689732034,-2.356037771174643,2.5081197446303456,-0.7035521923009026
92,0.9300000000000006,-1.902123753924758,-0.45613399534082427,3.1871542622874833,0.4929936212181156,-0.3049359985446991,0.7075876714689778,0.4040928277201991,11.326965729968137,-2.363483902338332,3.0851536474134855,-2.608067338599173,3.1945870643054444,-0.6738450831477023,10.283403586514694,30.459900615766422,-16.085663837090536,0.0,0.0,0.0,0.0,0.0,0.0,0.0,0.0,0.0,0.0,0.0,0.0,0.0,0.0,0.0,1806.0081513787507,1774.9906022563732,1765.5257399616933,1803.9140739624033,1801.4053539205245,1778.7782807214605,1773.9414841973414,1796.5147221966656,29.41744438808913,-2.1928922982653485,2.192668480239003,-0.7085909594706328
93,0.9400000000000006,-1.78836686889114,-0.4782519506356212,3.21719059724691,0.4797530361727734,-0.31961039295272614,0.708708754118832,0.40671626822017126,11.422334921624651,-2.0602441791425172,2.921130907850035,-2.4723552705776894,2.8517645597045154,-0.6857719894268903,9.004945266308795,30.329850743163078,-16.671166850060093,0.0,0.0,0.0,0.0,0.0,0.0,0.0,0.0,0.0,0.0,0.0,0.0,0.0,0.0,0.0,1793.080319986905,1760.9900619988964,1746.8368229500436,1797.2271505454646,1787.184010946088,1765.070794045061,1757.2918004879318,1786.6808303241844,29.738599300314768,-2.104926760630622,1.7698776876411308,-0.7185920847334742
94,0.9500000000000006,-1.6737204177620355,-0.4973499191408039,3.2455608064595247,0.4677669263436567,-0.33318528378420176,0.7090473706394298,0.40918638232223714,11.504927093003413,-1.7598324339473856,2.7521700606038597,-2.3234429746878824,2.5265345247910482,-0.6955370844466877,7.747687703208328,29.973173900311732,-17.10580064828182,0.0,0.0,0.0,0.0,0.0,0.0,0.0,0.0,0.0,0.0,0.0,0.0,0.0,0.0,0.0,1773.7075870549186,1742.953981432513,1727.7546515920712,1781.1625343136636,1767.8098161230073,1746.576177853811,1737.5490787875008,1770.6062295252784,30.25819422908809,-1.855199948455301,1.524880005897835,-0.7225169291512601
95,0.9600000000000006,-1.5582992270295113,-0.5134402499618373,3.2722160553789568,0.45712611428220973,-0.34566287401753587,0.708593861840497,0.4116401731235131,11.57790385144635,-1.4576543889624083,2.57801858680991,-2.2086325391446184,2.149404953614288,-0.7039439478372439,6.908455917228551,30.34134547657974,-17.633100457970396,0.0,0.0,0.0,0.0,0.0,0.0,0.0,0.0,0.0,0.0,0.0,0.0,0.0,0.0,0.0,1784.740642727449,1748.412085800677,1734.545928600731,1790.5675233915044,1778.643222250422,1755.155204912916,1746.2449227787545,1780.7011807801134,30.503824458400427,-1.4734615445643768,1.2979348313883439,-0.7270292556366034
96,0.9700000000000006,-1.442186738171737,-0.5264847335587658,3.2971034138246473,0.4478572974042244,-0.35702849800244124,0.7075009595096736,0.41400106892228666,11.64339980725233,-1.1504322201521173,2.398646097529255,-2.019714763903699,1.8437342793308005,-0.7109404891783773,6.209548597562176,30.881964837103038,-18.135090202719528,0.0,0.0,0.0,0.0,0.0,0.0,0.0,0.0,0.0,0.0,0.0,0.0,0.0,0.0,0.0,1794.7709503337842,1767.8230038814759,1750.6592865111088,1805.282620158194,1791.5437765572333,1772.2598696049392,1761.8630287187834,1796.5225027514825,30.696242856045963,-1.1983977358720959,0.957391515256494,-0.732034696276222
97,0.9800000000000006,-1.3254554964976313,-0.5364373338192493,3.320174990253384,0.4399637802196835,-0.36720740381209005,0.7061199340614936,0.4159149352949261,11.701670441921303,-0.8396835367734102,2.2150562896338784,-1.7296606527623375,1.575540550731774,-0.7166231729417262,5.505506367635249,31.15228440101636,-18.512832322742145,0.0,0.0,0.0,0.0,0.0,0.0,0.0,0.0,0.0,0.0,0.0,0.0,0.0,0.0,0.0,1795.2063207497204,1782.2570483232212,1757.070169582603,1814.2664358563006,1794.6753604344865,1783.2974659985632,1768.6729068069494,1804.41869040227,30.726458769077386,-0.9661028116069172,0.6996687696032111,-0.7315043573244819
98,0.9900000000000007,-1.2081754117520875,-0.5432715123039629,3.3413933390711446,0.43355476335680726,-0.37612915492633314,0.7045710306858267,0.4172970029886834,11.753315212741384,-0.5269024240803889,2.0281290470430546,-1.4529310127338517,1.2669276198810198,-0.7213230434611996,4.885869117636332,31.321279008386437,-18.812554835790696,0.0,0.0,0.0,0.0,0.0,0.0,0.0,0.0,0.0,0.0,0.0,0.0,0.0,0.0,0.0,1800.7055045680547,1788.204318602635,1760.65241134542,1822.0586449260893,1799.2576415979483,1790.0211621074868,1773.4204804533472,1810.8740761182542,30.59004724585817,-0.8911280363005545,0.3594487912152643,-0.7388130288037702
99,1.0000000000000007,-1.090409103763662,-0.546974149753946,3.3607299354572175,0.42863508374030357,-0.3838426187528089,0.7028561872887841,0.4182463257529018,11.799026545001329,-0.2136428751147399,1.8388801473391663,-1.2006630252162174,0.9865553450614674,-0.7246377525147377,4.328192320503632,31.314916413363868,-19.003157212847952,0.0,0.0,0.0,0.0,0.0,0.0,0.0,0.0,0.0,0.0,0.0,0.0,0.0,0.0,0.0,1801.1522048202094,1789.105213527487,1763.7219487849588,1822.294923467774,1799.3512537565687,1790.8338493964254,1774.9780024013667,1811.9480371431139,30.751930274439346,-0.7511903392024936,0.24616558244520614,-0.7377219587771455
100,1.0100000000000007,-0.9722129717452155,-0.5475494583978309,3.378167211306652,0.4251218842902912,-0.3904855677374242,0.7008609280153961,0.41903026676798827,11.83937051865781,0.09831013889717924,1.648459578980472,-1.0438029220943073,0.6733301354701506,-0.7275693059072668,3.820107402647821,31.13588227728037,-19.072327038810677,0.0,0.0,0.0,0.0,0.0,0.0,0.0,0.0,0.0,0.0,0.0,0.0,0.0,0.0,0.0,1802.0020590679696,1781.5388456656858,1761.7452214351842,1816.0822931143134,1797.8208356688297,1785.329657690523,1771.7134973873135,1806.3079647597917,30.71544932190132,-0.5175060780213055,0.26999095811954227,-0.7357163564003272
101,1.0200000000000007,-0.8536350777270842,-0.5450070322738536,3.3936959857322226,0.42279170778746905,-0.39625119220038985,0.6986066284888768,0.4197391370093209,11.87561225648347,0.4102519418282272,1.457172013440137,-0.8922001318373274,0.4662001427076812,-0.7298502657474868,3.4626446309857783,31.197374898727315,-19.15368501979886,0.0,0.0,0.0,0.0,0.0,0.0,0.0,0.0,0.0,0.0,0.0,0.0,0.0,0.0,0.0,1803.065260240214,1788.4867274043818,1772.2965348970672,1815.1689803948525,1801.1382238793904,1790.7290623037684,1779.6272375424167,1808.658829215589,30.803200457489844,-0.3743216053869219,0.2176153312993906,-0.7366077222939996
102,1.0300000000000007,-0.7347126415809255,-0.5393469899246438,3.4073100621858314,0.42130978384066303,-0.4013281707654573,0.6963828230046817,0.42010085600271724,11.908330348796865,0.7215714096405718,1.2656414819347352,-0.6955441174798096,0.374817995313072,-0.7312231882894163,3.130181804673171,31.08383365305056,-19.15406004396458,0.0,0.0,0.0,0.0,0.0,0.0,0.0,0.0,0.0,0.0,0.0,0.0,0.0,0.0,0.0,1794.0104558888186,1795.1237314452644,1777.4670430142223,1809.325658593391,1795.614622938321,1793.3916924896628,1782.3123186113594,1804.6374027267689,31.18937087339271,-0.31318704439743217,0.17741754020551637,-0.73272488036678
103,1.0400000000000007,-0.6154775409660268,-0.530576888115326,3.4190080865097032,0.4204689392748025,-0.4058452416703031,0.6943328121127575,0.4199969725394291,11.938292146963802,1.0323813489568507,1.0739323144113548,-0.5299703342956972,0.29770839762070633,-0.7322780747793147,2.890121830704473,31.05237874030453,-19.175849541398282,0.0,0.0,0.0,0.0,0.0,0.0,0.0,0.0,0.0,0.0,0.0,0.0,0.0,0.0,0.0,1794.1976497456421,1799.6835120803078,1782.8498405284558,1808.884255769327,1796.073403041669,1798.0146342814114,1787.4358480210947,1804.703612621933,31.282697560239736,-0.35989942852214507,-0.017561036980618783,-0.7389330804277611
104,1.0500000000000007,-0.49595175658505225,-0.5186927980953603,3.428785628632992,0.4201247572514905,-0.4099320298793424,0.6924097095798601,0.4195470334812439,11.966647876571958,1.3447367427584758,0.8814349960725978,-0.42005691809706364,0.2389310797427552,-0.7326856085621728,2.7684889020171966,31.273764650216805,-19.273919687076145,0.0,0.0,0.0,0.0,0.0,0.0,0.0,0.0,0.0,0.0,0.0,0.0,0.0,0.0,0.0,1805.3572767247078,1809.2032637514644,1797.399058039316,1816.9460219102498,1806.736324123011,1808.862907351575,1801.2213789959042,1814.33052017331,31.522041622109857,-0.34864340326382554,-0.059988206436386235,-0.7355677831790787
105,1.0600000000000007,-0.3761496481218019,-0.5036812006166477,3.4366357862477295,0.420243683321663,-0.41367156965777047,0.6904033488281182,0.4190635930405288,11.99351420234059,1.6575239413801743,0.688609387636098,-0.3926908381150882,0.1079510806368002,-0.7334372286878075,2.614799309267113,31.251085992830994,-19.27272550155068,0.0,0.0,0.0,0.0,0.0,0.0,0.0,0.0,0.0,0.0,0.0,0.0,0.0,0.0,0.0,1815.1439650395664,1806.6638479098574,1800.3468837572061,1819.0754154898434,1812.9468750250785,1809.2398605422106,1804.018754900101,1815.7593941990892,31.42484332866809,-0.24273799429373039,0.13826173375565687,-0.7290310559053872
106,1.0700000000000007,-0.2560853380298519,-0.48553946062497577,3.442557346308977,0.4207664589955032,-0.4171357838481826,0.6882209585735034,0.41869468231387386,12.01916119291897,1.9709392085784472,0.49570953441641186,-0.37034498335411087,0.02687883060282458,-0.7339668261196369,2.508556724183819,31.34624826548471,-19.27821549531905,0.0,0.0,0.0,0.0,0.0,0.0,0.0,0.0,0.0,0.0,0.0,0.0,0.0,0.0,0.0,1821.6538033489733,1812.8748310800609,1809.9692217576405,1823.7255126338255,1820.236692393091,1814.9265332588598,1812.406190759141,1822.0515348989563,31.2634177800713,-0.14960159331855483,0.3191312038928711,-0.7268606585044692
107,1.0800000000000007,-0.13577167396719747,-0.46426723941740466,3.446552556954901,0.42139764475588065,-0.420483303443293,0.686117366680388,0.4181635752420125,12.043307911385444,2.2831897829274888,0.30346710995045023,-0.3019903623261127,0.08994279928547103,-0.733472599821721,2.3468334818392833,31.148501039258036,-19.192754076473197,0.0,0.0,0.0,0.0,0.0,0.0,0.0,0.0,0.0,0.0,0.0,0.0,0.0,0.0,0.0,1810.5538382185946,1817.888187560202,1814.0610313624134,1816.3081278107281,1813.1505619141587,1815.0961774700736,1813.224438400486,1816.947171795192,31.087361873289684,-0.03072872663138658,0.2872472501889683,-0.7206531558885347
108,1.0900000000000007,-0.015224814273935797,-0.439884753439353,3.4486297157665096,0.4218634379236664,-0.42385627544149695,0.684350181907059,0.41718332425429216,12.065803391017672,2.592867194956683,0.11207354415475065,-0.2220337123801333,0.20744723835254295,-0.7325022263017534,2.1845819292458657,30.865804664263585,-19.11857522887525,0.0,0.0,0.0,0.0,0.0,0.0,0.0,0.0,0.0,0.0,0.0,0.0,0.0,0.0,0.0,1800.326995595458,1818.6271935501818,1813.3443679532206,1808.24507841588,1804.7188337662324,1813.9186889061245,1811.4686978813127,1809.6354296010409,30.92029812464533,0.035467149297931405,0.06361604594172235,-0.7274462527899583
109,1.1000000000000008,0.10553916650049938,-0.4124203633187328,3.448796055535691,0.42226000809247183,-0.4271804723838343,0.6829216115631833,0.415729962884099,12.086767474541599,2.899522740535572,-0.07873798975237581,-0.12170474748578188,0.24349479021906584,-0.7309319834678264,2.042352039266504,30.55288153623037,-19.070369980068975,0.0,0.0,0.0,0.0,0.0,0.0,0.0,0.0,0.0,0.0,0.0,0.0,0.0,0.0,0.0,1796.4207756918386,1811.4411496409457,1805.3678054988927,1807.0736104904395,1798.8108018180112,1808.6030437554236,1805.9692938340866,1805.94275116137,31.204797114258586,-0.02873019282570695,-0.02027394990359374,-0.7246616975647243
110,1.1100000000000008,0.22650631815171632,-0.38190514608600884,3.447056480975193,0.42295245340577964,-0.4302357279217036,0.6815999052496562,0.4140410725294937,12.10649578434176,3.2030338589856,-0.2691048591253812,-0.04093736074245816,0.14725705806003025,-0.7300832352215176,1.9345819836118494,30.23869975459137,-19.021620230052882,0.0,0.0,0.0,0.0,0.0,0.0,0.0,0.0,0.0,0.0,0.0,0.0,0.0,0.0,0.0,1799.5316998224264,1800.2118963341384,1793.0368974470648,1807.997545888406,1798.2999995913037,1801.0785431745137,1796.8402312304183,1803.6895888947638,30.74147540008536,-0.01686317930085778,0.24080520466949765,-0.7162153989411121
111,1.1200000000000008,0.34766868124277717,-0.348358960393731,3.4434124234836165,0.42401834178074127,-0.4330207480294208,0.6801621134626704,0.4124087499308723,12.125980606796416,3.506299225679042,-0.4597809268642627,-0.03812351255564538,0.06424547029760891,-0.7293185529674923,1.9428865719817168,30.322827827107712,-19.07630133939875,0.0,0.0,0.0,0.0,0.0,0.0,0.0,0.0,0.0,0.0,0.0,0.0,0.0,0.0,0.0,1811.046188592285,1803.596044361317,1802.0183172086975,1814.6963313935644,1809.454836907041,1806.0106083093929,1804.8691699981946,1812.6187263171594,29.91558442216037,0.07873687701334516,0.596437675306805,-0.7122721700144934
112,1.1300000000000008,0.4690220795785132,-0.31179425155697826,3.437865081675225,0.4250525847011502,-0.43580269619183015,0.6787636583520609,0.4107142636083264,12.14448802734613,3.805806503209077,-0.6494699078751595,-0.02679613864803305,0.1612684558014449,-0.7276205443689368,1.8050441258203875,29.773459814324,-18.92813488691325,0.0,0.0,0.0,0.0,0.0,0.0,0.0,0.0,0.0,0.0,0.0,0.0,0.0,0.0,0.0,1790.745558381826,1797.4684595110912,1799.009527985238,1794.2554742730158,1792.529096175195,1794.500029825478,1796.0006397693433,1796.034005588696,29.945366177435453,0.16309664283526687,0.609541933445588,-0.7043013599280952
113,1.1400000000000008,0.590551162276178,-0.27227258285210715,3.4304309366998345,0.4256027416239119,-0.43882825022009275,0.677782055088811,0.40853832002710544,12.160999982047478,4.097165971749489,-0.8370615256308862,0.03062025448627355,0.3849226949385638,-0.7252360552728632,1.5843479474142441,28.859253760838754,-18.71337404366702,0.0,0.0,0.0,0.0,0.0,0.0,0.0,0.0,0.0,0.0,0.0,0.0,0.0,0.0,0.0,1757.0055886602972,1783.1086821833128,1782.5932945276784,1763.665216175083,1762.4837601499596,1775.5913095773622,1776.5784275232159,1767.281899274862,30.257087987818053,0.19408552386272965,0.49879347984694666,-0.7112031571211327
114,1.1500000000000008,0.7122394814718994,-0.2298619376704013,3.4211234552915935,0.42573668996313974,-0.4420298260143674,0.6772651015704236,0.40579537445335834,12.176603028846875,4.384644995925129,-1.0245682314445232,0.10072675016677819,0.4913647448980666,-0.7221901784586433,1.545119765960834,28.662018783463417,-18.789162078129305,0.0,0.0,0.0,0.0,0.0,0.0,0.0,0.0,0.0,0.0,0.0,0.0,0.0,0.0,0.0,1758.290433297745,1780.303135344335,1778.8803490798555,1767.9586627785468,1762.3297641442377,1776.40948501783,1777.5001783231942,1769.2169119958871,30.59465492052081,0.06200278063777215,0.2972818038646776,-0.7099839043417951
115,1.1600000000000008,0.8340841362526801,-0.1845782369331309,3.409933782767715,0.42581275230986837,-0.4451938317713493,0.6769665005322816,0.4027434782589465,12.192389564362069,4.6721705683175365,-1.2136667112657593,0.14880888533873032,0.48944030720893295,-0.7200013502964292,1.5884640557732865,28.738896067790343,-18.979647343271733,0.0,0.0,0.0,0.0,0.0,0.0,0.0,0.0,0.0,0.0,0.0,0.0,0.0,0.0,0.0,1774.9042519491663,1783.185989130542,1780.6660728554807,1781.7158168877456,1775.896395076132,1783.2854517952119,1782.5281482894204,1780.562639728281,30.281651928819016,-0.052942742805421494,0.5416365237324674,-0.7011457480275322
116,1.1700000000000008,0.9560892986292997,-0.13641442312312876,3.396843304911912,0.4260487900137621,-0.4482453283144372,0.6765324174644093,0.3998280158916506,12.208722723717022,4.960726662534132,-1.4047215451651727,0.09998101641775864,0.3887175046859375,-0.7182793835555855,1.6454344473064708,28.854768952611742,-19.169328228654468,0.0,0.0,0.0,0.0,0.0,0.0,0.0,0.0,0.0,0.0,0.0,0.0,0.0,0.0,0.0,1794.2579562956357,1783.6617353404868,1787.4985748286672,1794.3615167188045,1791.4230830882336,1787.6976898846542,1790.1128042773414,1792.6646659889964,29.747106505978802,0.019708756173966474,1.0484544388549248,-0.6963638729269803
117,1.1800000000000008,1.0782565610839112,-0.08537543098436808,3.3818388184430237,0.42613012308072734,-0.45141884590357767,0.6759609613549437,0.3971283451107295,12.224583008108965,5.246390842831772,-1.5961786709821135,0.01973268712516169,0.47401246664727664,-0.7159884936731121,1.551962369562787,28.414734062725877,-19.158949969043213,0.0,0.0,0.0,0.0,0.0,0.0,0.0,0.0,0.0,0.0,0.0,0.0,0.0,0.0,0.0,1781.076554177912,1778.999958553951,1788.8165167535758,1777.8158573922342,1781.0064304321515,1778.2959561835846,1785.039050319065,1780.8244272337695,29.555108900869218,0.12099781794037628,1.0216044965982718,-0.6853371654990742
118,1.1900000000000008,1.2005756165458956,-0.03150876815453686,3.3649221078590803,0.42546021139346,-0.4550332058472161,0.6757368626398866,0.39409146472239215,12.238973703198344,5.525933575301811,-1.7871458855272786,0.024683440947736845,0.7714546648258035,-0.7129492621317852,1.3833402837342135,27.739966882697864,-19.11844279560082,0.0,0.0,0.0,0.0,0.0,0.0,0.0,0.0,0.0,0.0,0.0,0.0,0.0,0.0,0.0,1751.165740492036,1777.1762455605633,1783.738541430753,1752.3255075685151,1757.8018542878258,1769.4759380075443,1775.302107619983,1759.3649845208297,29.519220137435617,0.20922456171725606,0.9659045154624463,-0.6906702463484561
119,1.2000000000000008,1.323032036894376,0.02512801941742401,3.3460932945297652,0.4241707503211237,-0.4589508712736689,0.6759838495335948,0.3904985371277305,12.252152083552888,5.800799949838739,-1.9788334334870241,0.07847859936929756,0.8877631169109509,-0.7089723740719458,1.2813217780021091,27.340159180067047,-19.2374871507186,0.0,0.0,0.0,0.0,0.0,0.0,0.0,0.0,0.0,0.0,0.0,0.0,0.0,0.0,0.0,1746.3473359132392,1768.337451072626,1771.3899215350473,1754.183512972861,1750.158563176857,1764.10567207735,1768.984724168558,1755.867874459935,29.975167732694683,0.04494763387353265,0.5541278375857928,-0.6905552527219276
120,1.2100000000000009,1.445616416877042,0.08449752446001059,3.325339574622847,0.4227453851989758,-0.462858177600487,0.676500827936942,0.386516851536848,12.264643155509322,6.072667746676176,-2.172239245706329,0.14840013804338703,0.9222237235543576,-0.7056465811048176,1.229896219719251,27.073959534974712,-19.43159166300168,0.0,0.0,0.0,0.0,0.0,0.0,0.0,0.0,0.0,0.0,0.0,0.0,0.0,0.0,0.0,1750.7323650753217,1763.211031140855,1761.7701557129637,1759.401531480768,1752.3612064230836,1761.7149109471454,1762.7702584143267,1758.0365223322478,29.615021985680812,-0.1982565976867403,0.609338383934972,-0.6847383585593423
121,1.2200000000000009,1.5683262974230894,0.1465845034771712,3.3026375709253597,0.42159643890549353,-0.46657297849678614,0.6768127025051192,0.3827409883544762,12.277412687682471,6.344944486933112,-2.3686884954357206,0.09014557446558182,0.7275921019302318,-0.7028890422198975,1.286898390549851,27.239351532573508,-19.764987288223956,0.0,0.0,0.0,0.0,0.0,0.0,0.0,0.0,0.0,0.0,0.0,0.0,0.0,0.0,0.0,1779.2067529874914,1760.7685620159573,1766.089206024032,1779.9495493544357,1774.3335302413946,1767.4232690127387,1771.2108260939633,1776.043563439051,28.9564589192212,-0.17748969247470947,1.1056508586233058,-0.6802799458039636
122,1.2300000000000009,1.6911619789171097,0.21138364213990338,3.2779627582738198,0.4205710855435053,-0.47027238873291816,0.6766596837267306,0.37959915018218066,12.289527048295977,6.614130565492292,-2.566350926409332,-0.06298926083486203,0.6753295801442277,-0.7002230513504802,1.1639590416514523,26.752722722577893,-19.7995015467205,0.0,0.0,0.0,0.0,0.0,0.0,0.0,0.0,0.0,0.0,0.0,0.0,0.0,0.0,0.0,1771.2893414733003,1749.1273688932124,1764.3053925232498,1763.3079816308514,1766.5600136332673,1753.1043199947437,1762.7478486238329,1763.8665658490813,28.757164822138996,-0.0918333446682104,0.9166978165516679,-0.6612542899474968
123,1.2400000000000009,1.8141098405491054,0.27884155831946417,3.251313364634279,0.41897910893904183,-0.4743339276021925,0.676515098765815,0.3765516598555958,12.29970214621891,6.876294222505977,-2.7634721707499708,-0.11675466975242894,0.90438823825908,-0.6972656688929146,0.9398992465285971,25.974592117346873,-19.729607440827746,0.0,0.0,0.0,0.0,0.0,0.0,0.0,0.0,0.0,0.0,0.0,0.0,0.0,0.0,0.0,1735.8827050313128,1745.6260860910998,1758.1572532960993,1731.1822900662235,1739.4418754926737,1740.47684382385,1749.8150108867844,1737.7626209802556,28.770810594096364,0.038789336708181646,0.8630301913132062,-0.661056741844291
124,1.2500000000000009,1.9371505643063505,0.34889342764321485,3.222690928553195,0.41698948961710747,-0.4785918314032736,0.6765376314357623,0.37331817222606956,12.30821650857464,7.133460974195535,-2.961212383043098,-0.09877021533849704,0.899794778922494,-0.6925215187551439,0.7966087547046641,25.57364432200515,-19.836748136329962,0.0,0.0,0.0,0.0,0.0,0.0,0.0,0.0,0.0,0.0,0.0,0.0,0.0,0.0,0.0,1730.339102636722,1734.8670454334483,1743.860132076938,1735.6800296477475,1730.745263462722,1733.9055882701946,1743.3308211600042,1735.4966051612882,29.368225192525337,-0.16304310219487805,0.12700155067563612,-0.6610512041995013
125,1.260000000000001,2.0602708627275095,0.42150274734294885,3.192083413519113,0.4151200975200736,-0.4827009994895323,0.6766253578084018,0.36993671742256584,12.31571245637666,7.388061631162243,-3.160600112875482,-0.023440514355307727,0.8800954075162437,-0.6875211317946747,0.7159807117176342,25.367076502330832,-20.021732976859496,0.0,0.0,0.0,0.0,0.0,0.0,0.0,0.0,0.0,0.0,0.0,0.0,0.0,0.0,0.0,1731.6352268869616,1734.6140685386506,1736.6318456630277,1742.1888880092363,1732.1568323572894,1734.4057820487333,1738.9787406413395,1739.5977092949577,28.986190745083462,-0.49320428874478295,-0.3955063425715867,-0.6613466982734252
126,1.270000000000001,2.183465575709498,0.49666153799823504,3.1594674475852096,0.4139518640845182,-0.48639386621835334,0.6762254605015874,0.36712938822100727,12.323287855688807,7.644156603885,-3.3631266371389086,-0.10181719992133909,0.48668046259444175,-0.6828229185316288,0.7589021855824996,25.674628578528313,-20.36290410768471,0.0,0.0,0.0,0.0,0.0,0.0,0.0,0.0,0.0,0.0,0.0,0.0,0.0,0.0,0.0,1770.1281334983066,1730.4120804820643,1739.306992591061,1772.1566814282785,1760.9160971532547,1742.5795797797414,1749.2269275561487,1764.0776108569498,28.238966981149503,-0.6374144178483225,-0.3695044104061006,-0.658769860257704
127,1.280000000000001,2.3067328924722275,0.5743749715538357,3.124821022545703,0.41381608225837074,-0.4896044805087992,0.6746891858078603,0.36583904286443936,12.32992879166875,7.897896917452931,-3.56598522077927,-0.3110355269532923,0.043686885262521395,-0.6787330550598223,0.6031768664449544,25.244394092792888,-20.24683514652592,0.0,0.0,0.0,0.0,0.0,0.0,0.0,0.0,0.0,0.0,0.0,0.0,0.0,0.0,0.0,1774.1988622384247,1706.6668468377445,1726.7906567086825,1763.7027148715317,1759.5378007621728,1721.8646329685846,1733.763203621829,1755.6550968391148,28.074435239760575,-0.8880351046186854,-0.9902320149654287,-0.6278981314679575
128,1.290000000000001,2.4300559526116494,0.6545956145925619,3.0881582352725396,0.4142658481805787,-0.4926078968781547,0.6721726499616596,0.36593058851102817,12.334261902602018,8.145158128748047,-3.7660286975867274,-0.4787751774723182,-0.14984168316412005,-0.675491417815209,0.33473716025334,24.51820494209933,-19.88899872152805,0.0,0.0,0.0,0.0,0.0,0.0,0.0,0.0,0.0,0.0,0.0,0.0,0.0,0.0,0.0,1743.8037274862083,1694.2858785411254,1715.3410966090698,1731.1621500172414,1735.0079265739573,1701.3207222998228,1714.911016080401,1729.219647170998,28.10452698374567,-0.9708124965769964,-1.303156234857306,-0.6179065264478685
129,1.300000000000001,2.553411060609973,0.737266253475074,3.0495085749051736,0.4153080587138143,-0.4953965477718521,0.6686235736063243,0.3674833243032975,12.336429119688491,8.388695575280277,-3.9635216117110907,-0.6933146421923458,-0.5796987257473014,-0.6686294798932965,0.12947987816325224,24.305719409333904,-19.64823583120534,0.0,0.0,0.0,0.0,0.0,0.0,0.0,0.0,0.0,0.0,0.0,0.0,0.0,0.0,0.0,1743.0228266129322,1676.9247153749316,1706.184072008493,1733.941234395515,1730.0422002780215,1690.641857488794,1711.6463228858072,1727.962808817136,28.516522405027143,-1.3732571600647716,-2.630742948701104,-0.6157461635816592
130,1.310000000000001,2.676778232817552,0.8223692466084734,3.0088953451852594,0.4171858841358765,-0.4977918817952438,0.6639526606862056,0.370575289063134,12.336677574882469,8.63198947316704,-4.15868909146752,-0.8351668199828614,-0.9372536386678589,-0.6602026044419617,-0.06591332027561236,24.353024160108205,-19.392013216545934,0.0,0.0,0.0,0.0,0.0,0.0,0.0,0.0,0.0,0.0,0.0,0.0,0.0,0.0,0.0,1741.5926883535144,1679.4534392646494,1705.1463042194505,1736.8374093053549,1730.4360154205935,1691.7290710719687,1710.8071256504688,1730.9823389299204,27.00225034575879,-1.4349951409569623,-4.770284423186556,-0.6117221941670561
131,1.320000000000001,2.8001387857558595,0.9099152220275761,2.9663429830198877,0.4205662328346231,-0.4994177504093581,0.6575213076775255,0.37599426102719563,12.33514740206987,8.87800554634057,-4.351290926412757,-1.1229292779846136,-1.806271907948151,-0.650075088999289,-0.24192298002212453,24.783900433661188,-19.094471526613255,0.0,0.0,0.0,0.0,0.0,0.0,0.0,0.0,0.0,0.0,0.0,0.0,0.0,0.0,0.0,1778.3237027746018,1664.1613156602602,1696.5133984832514,1766.4215747568196,1755.7074041874023,1693.0112285301711,1713.5571137992752,1751.320660890111,25.166821189303274,-1.2929056215632302,-6.095372668582588,-0.607196164999564
132,1.330000000000001,2.92346433251795,0.9998921051189822,2.921905437827636,0.42732362366616244,-0.4990973272887137,0.6480582900507315,0.3851192428931649,12.329237038381326,9.116155532556537,-4.5343528453624105,-1.2845065020888404,-3.3209087297037856,-0.6399505785390516,-0.7542509920703822,23.65993091919094,-17.842613419938758,0.0,0.0,0.0,0.0,0.0,0.0,0.0,0.0,0.0,0.0,0.0,0.0,0.0,0.0,0.0,1767.7355290059224,1582.0015381573257,1607.906069081638,1759.7747993664693,1729.7827761361423,1626.0285927070918,1642.028785835876,1727.7561010988422,24.093990788174697,-1.535300380620032,-6.791353751393932,-0.5678086210966715
133,1.340000000000001,3.046705410165729,1.0921922249702103,2.87570631137804,0.43838559586505266,-0.4959667158336067,0.6351866343461281,0.3979610856243451,12.318216680459688,9.342154598465196,-4.702924557323615,-1.2869136200190603,-4.702143954269519,-0.6304030625305329,-1.2683350659905557,22.34239118013548,-16.222090504158793,0.0,0.0,0.0,0.0,0.0,0.0,0.0,0.0,0.0,0.0,0.0,0.0,0.0,0.0,0.0,1713.0277796645423,1526.0041265607301,1534.8520885527407,1716.527791501247,1677.8944925213355,1562.0611837845697,1569.0240068473747,1682.5658809105757,21.703263413899254,-1.4522205810448754,-6.598718167458528,-0.5501713414481296
134,1.350000000000001,3.1698151916049833,1.1867076182239462,2.827898938904558,0.4527431143164502,-0.4903102641342267,0.6191743356386812,0.41381476461100836,12.30315752080541,9.560105103599755,-4.855960379580313,-1.428677429856933,-5.727365235689815,-0.6148797897367506,-1.6429060477154422,21.700081309468544,-14.629192987226425,0.0,0.0,0.0,0.0,0.0,0.0,0.0,0.0,0.0,0.0,0.0,0.0,0.0,0.0,0.0,1660.62261924296,1502.6657186448322,1522.4290564368196,1667.4757720117425,1634.6491662380438,1529.5253902595914,1544.193945350793,1643.9314598377623,19.01439253651464,-1.5641632913113281,-7.501064490970632,-0.5399134852990318
135,1.360000000000001,3.2927503715696496,1.2833361640442225,2.7786502081160758,0.46866648589031223,-0.482902405244207,0.6009748488519048,0.43126120050384303,12.283042054728796,9.763000249690691,-4.990772036540426,-1.443607763687632,-6.131091960906251,-0.5970175999911862,-2.1933176004722554,19.857125915400786,-12.735340489665958,0.0,0.0,0.0,0.0,0.0,0.0,0.0,0.0,0.0,0.0,0.0,0.0,0.0,0.0,0.0,1545.7886114844648,1463.4269167291056,1477.219914674505,1559.1004950109498,1533.2677739987678,1469.601161759564,1480.0300622764778,1547.7123603984573,22.99797330614723,-1.982268635241119,-9.608497960553684,-0.5062727140283702
136,1.370000000000001,3.4154556943052614,1.3818868007740541,2.728145801037194,0.4856559099456458,-0.473829930787896,0.5807515782690786,0.4498345675494257,12.257164088860998,9.943978278007208,-5.1072611104956,-1.5165965878501226,-6.829089119067345,-0.5785558090457269,-2.7713469971732962,17.56891945756678,-10.936369355917464,0.0,0.0,0.0,0.0,0.0,0.0,0.0,0.0,0.0,0.0,0.0,0.0,0.0,0.0,0.0,1456.2875558857995,1360.6229987618524,1374.2425044531592,1468.125646451488,1436.4234283670821,1374.8268292457647,1384.669657676697,1448.715370107988,25.45834786693521,-2.4653860014951867,-9.999999999988002,-0.4635517668922578
137,1.380000000000001,3.53789712510807,1.482301968467231,2.6765455113633254,0.5046460025864599,-0.4620888708009969,0.5568128875361043,0.47092005248138685,12.231467114507698,10.145223767147616,-5.210456502907724,-1.7786192236023008,-8.253391962729388,-0.5525231931192217,-2.5420543174199395,21.36182703261902,-9.60004520612312,0.0,0.0,0.0,0.0,0.0,0.0,0.0,0.0,0.0,0.0,0.0,0.0,0.0,0.0,0.0,1624.6851640553293,1436.785141404039,1469.510070516829,1627.2842601664759,1590.6191858729242,1500.5721894529383,1516.1762772752163,1599.5681309555598,26.070147166999064,-2.6976349011049874,-10.0,-0.4170693768515538
138,1.390000000000001,3.6600879531529054,1.5849044733300361,2.6239991778000036,0.5250371804507656,-0.4476593844537995,0.528418458705753,0.49468269340436,12.206534195675275,10.379608066747043,-5.295057287486167,-2.1497241771853366,-9.095558629315569,-0.5226454312790763,-2.5876055509055362,24.28413944373098,-7.408141584331673,0.0,0.0,0.0,0.0,0.0,0.0,0.0,0.0,0.0,0.0,0.0,0.0,0.0,0.0,0.0,1697.6497864691412,1537.9837191688139,1584.1031642413195,1688.2996660524223,1673.8682533855338,1576.4502320737693,1602.5179169962312,1677.8926294558837,28.01386390886977,-2.3116672670055194,-9.999999999999995,-0.42183344133648376
139,1.400000000000001,3.78201710155239,1.6899405232046691,2.5707282398358617,0.5451600330622336,-0.4314681151169254,0.4964941121736939,0.5197397431079209,12.178535794216662,10.628924345414477,-5.354677167802293,-2.4393989577772945,-9.523760752616319,-0.4872696631524342,-3.023123472420508,25.18941740185987,-4.751049679850183,0.0,0.0,0.0,0.0,0.0,0.0,0.0,0.0,0.0,0.0,0.0,0.0,0.0,0.0,0.0,1690.4161305137218,1591.868653691339,1637.227030155481,1684.6983126845932,1678.596344254772,1608.8990310587385,1639.1408683006575,1683.3947659492226,29.127317228230822,-2.3029976173882227,-9.999999999999996,-0.40396625848731343
140,1.410000000000001,3.9036444867884965,1.797542307698961,2.517006145348482,0.564482076737053,-0.41355859867640077,0.46235293033826524,0.5445723444236356,12.146137620819502,10.894005523614808,-5.384411008838454,-2.3658966204233725,-9.750590554628744,-0.45428393886601803,-3.4801652364926383,26.957841478344235,-1.5545123960061247,0.0,0.0,0.0,0.0,0.0,0.0,0.0,0.0,0.0,0.0,0.0,0.0,0.0,0.0,0.0,1722.795275350796,1687.36251064207,1696.253008898336,1734.1383960582332,1724.2988037186974,1694.1340460990868,1702.2466195927861,1732.2173704381842,28.97244828606932,-2.827614375932026,-10.0,-0.35663521105307766
141,1.420000000000001,4.024921351530507,1.9078570541322095,2.4631513882509766,0.5827667390845175,-0.39397904639250136,0.4267463738723473,0.5683757306634898,12.108195424492251,11.169879100775296,-5.380897890784032,-2.343214732427477,-9.868744599235164,-0.4248672411284208,-4.0878941351518705,27.68261946626005,1.8473753744139287,0.0,0.0,0.0,0.0,0.0,0.0,0.0,0.0,0.0,0.0,0.0,0.0,0.0,0.0,0.0,1747.4075911312293,1736.1279067451983,1735.1236254222076,1762.131194395447,1749.8808643742975,1738.8711511266486,1739.3563883617956,1759.853648292732,28.874644049855746,-2.9794370225579287,-10.0,-0.32034264373060933
142,1.430000000000001,4.145784560441353,2.020925041363574,2.4094944033855064,0.5993780610621204,-0.37348683152488565,0.3894429027041087,0.5912594626120691,12.063128234370168,11.442372121014657,-5.345280606362569,-2.616222096421878,-9.92987212205495,-0.3926188019577663,-4.8708657125029475,26.876863994917954,4.973963406370352,0.0,0.0,0.0,0.0,0.0,0.0,0.0,0.0,0.0,0.0,0.0,0.0,0.0,0.0,0.0,1748.1241193123335,1726.2520548245693,1747.7569627512357,1747.2635783754404,1744.2308382298047,1731.7255876309653,1744.0384903999482,1749.4015715675794,30.23155171414195,-2.8858692106421766,-9.99999999999997,-0.2552326168006247
143,1.440000000000001,4.266155570662322,2.136671171173785,2.35634913194188,0.6139790420114382,-0.35247390628095554,0.35038891551823936,0.6132042801903075,12.009568484680647,11.70491368842509,-5.278647032562971,-2.8095894925434695,-9.961597634635748,-0.3570171522147593,-5.768683840072342,25.718764642375547,8.047987125464395,0.0,0.0,0.0,0.0,0.0,0.0,0.0,0.0,0.0,0.0,0.0,0.0,0.0,0.0,0.0,1744.5832069508936,1723.6189350254863,1749.1471511927443,1740.6882519165779,1740.5305690133428,1729.3220499862462,1744.1932820410184,1743.5843260524462,32.0093860030653,-2.4583848162441755,-9.99999999999964,-0.24416581699949158
144,1.450000000000001,4.385943889169499,2.255011061008015,2.304043454836562,0.6266650976982399,-0.330715347161885,0.31005853580522696,0.6338626971614344,11.946407663745903,11.96210537778149,-5.176328035325291,-2.848313064336559,-9.978229399943855,-0.3169814098681875,-6.774559368180277,25.29839219051233,11.809475700252925,0.0,0.0,0.0,0.0,0.0,0.0,0.0,0.0,0.0,0.0,0.0,0.0,0.0,0.0,0.0,1773.9062725903773,1765.6952192506405,1786.2617456841524,1785.5326233551175,1775.401441636407,1769.8964950380234,1786.4936453743996,1787.4222825483698,33.89702147910763,-2.511261929592829,-9.454585779176671,-0.22337851498058753
145,1.460000000000001,4.505047655182666,2.3759012885337616,2.2529595690899336,0.6377134565089163,-0.3076670100399022,0.2692272917469207,0.6528240373172358,11.872532075977716,12.214574520465607,-5.033787832496268,-2.640824618698275,-9.987187283256043,-0.27977004431854846,-7.86679756785702,24.677705205983003,15.916680969191077,0.0,0.0,0.0,0.0,0.0,0.0,0.0,0.0,0.0,0.0,0.0,0.0,0.0,0.0,0.0,1817.3677281748405,1829.7738668957793,1825.4206920606694,1842.318572167793,1824.5052110008105,1830.0425987857093,1830.7495301680508,1840.2854988343024,35.39599571285958,-2.924985843435234,-9.999999999999961,-0.17849816061636586
146,1.470000000000001,4.623356694365543,2.4992749114424107,2.2035106798590816,0.646961586017749,-0.2838623891314647,0.2285906892654203,0.6697829103785314,11.787375062974768,12.457938425217037,-4.8492747345383975,-2.5849672341108403,-9.706384162968371,-0.24712295754004782,-9.014432006978268,23.54616174738311,20.091491380410886,0.0,0.0,0.0,0.0,0.0,0.0,0.0,0.0,0.0,0.0,0.0,0.0,0.0,0.0,0.0,1861.0242027314328,1895.267545562625,1890.971503283363,1879.846814274471,1873.548092388582,1890.1687174209965,1888.3347120853712,1886.428011918025,35.51617601095092,-3.0672168262152204,-10.0,-0.14763328594204939
147,1.480000000000001,4.740755775229248,2.6250059697055494,2.156106922378617,0.6542750574330944,-0.2596675411214789,0.1872689610750508,0.6851476144063535,11.69042739470816,12.684710967115596,-4.625345341968374,-2.7775796833730535,-9.872616222767506,-0.21255536666440467,-10.227386288315543,21.561501439869346,23.896152840829465,0.0,0.0,0.0,0.0,0.0,0.0,0.0,0.0,0.0,0.0,0.0,0.0,0.0,0.0,0.0,1925.4752542603444,1912.2793720014995,1928.0302377685105,1928.4902730627991,1922.3442170793649,1921.8063471502655,1930.1573039997124,1929.080957392477,35.44824525871903,-2.957807433658122,-9.999999999999932,-0.07796380675916294
148,1.490000000000001,4.857126643917041,2.752871074888315,2.1110999939320303,0.6596327479398844,-0.23495499529868005,0.14460546582313716,0.6991209103463776,11.581844466806796,12.88274777011398,-4.371931219715769,-2.930405104790653,-9.93074554840887,-0.1765784251525372,-11.370199855553764,18.26594192677966,26.4077475594382,0.0,0.0,0.0,0.0,0.0,0.0,0.0,0.0,0.0,0.0,0.0,0.0,0.0,0.0,0.0,1934.91663659238,1914.4192820815656,1933.8386566719307,1932.0925997722145,1930.731372001778,1920.96644467006,1932.1855584218445,1932.563631955051,34.15182256962836,-2.816012131233195,-9.54285369216021,-0.05474397107940876
149,1.500000000000001,4.972355577478025,2.8825406569739007,2.0687385928035544,0.6630372068821098,-0.20966718897524925,0.10118057971630631,0.7114659671730332,11.46214563550507,13.044865905070147,-4.097259395547086,-2.940666086995137,-9.962521087031874,-0.13631076881304988,-12.451220118942175,14.496541799683627,28.279322063112566,0.0,0.0,0.0,0.0,0.0,0.0,0.0,0.0,0.0,0.0,0.0,0.0,0.0,0.0,0.0,1924.5965663683837,1915.909060929332,1933.4603180662432,1935.3476439550727,1924.19064986498,1917.7928948051833,1932.5016567440634,1934.5555203686024,21.686804539099356,-2.5091171354453414,-8.43534926019723,-0.03227165153628272
150,1.5100000000000011,5.086341201888426,3.0136251408631707,2.029176935435518,0.664511284530094,-0.18407673063133856,0.0579829471379165,0.7219269269208927,11.333683446432731,13.16488827783656,-3.8144086481526305,-2.8739947257956597,-9.740039307181386,-0.09690575024391511,-13.212970306179628,10.134888267973707,28.56828810707368,0.0,0.0,0.0,0.0,0.0,0.0,0.0,0.0,0.0,0.0,0.0,0.0,0.0,0.0,0.0,1876.9249394877288,1898.2243041434365,1905.4001207829813,1892.705186759613,1882.5806468421476,1891.4154550059745,1898.9258972909568,1893.8459201939436,9.651585804505675,-2.3003563459680616,-8.56015621372421,-0.0009707436036471909
151,1.5200000000000011,5.1990723286426865,3.1456031118582595,1.9921431280966702,0.6641742875734837,-0.15927212107150204,0.016781778303488395,0.7302213904649829,11.214824676528044,13.220831158710409,-3.606988764463041,-2.678878658274994,-9.05974582957071,-0.06102961095190931,-11.539098790303015,3.4500069859237925,18.146406509635504,0.0,0.0,0.0,0.0,0.0,0.0,0.0,0.0,0.0,0.0,0.0,0.0,0.0,0.0,0.0,1474.8032047025015,1562.88179032759,1558.2189537180263,1502.8809681011874,1473.1717743465124,1532.9315758932235,1528.2456835788364,1494.6546649845534,10.13023396724713,-2.355327939874289,-9.492513419849596,0.03372672000625315
152,1.5300000000000011,5.310715549881649,3.277860050893436,1.9566329226267138,0.6623256254548765,-0.13498595399765373,-0.02231371171666443,0.736617713850662,11.116987366801172,13.224181306975565,-3.5107009603670876,-2.4807410934845953,-8.827686678077335,-0.030433891131473153,-9.23946977267498,-1.0047442371750037,6.833029405574731,0.0,0.0,0.0,0.0,0.0,0.0,0.0,0.0,0.0,0.0,0.0,0.0,0.0,0.0,0.0,974.008062796572,1069.8426209649797,1056.736961156682,1018.9331114227056,961.998315246735,1035.4731722375643,1022.2469286599963,1001.3280063400881,10.014985492448146,-2.1631332431960852,-9.557887690168563,0.09614805316605698
153,1.5400000000000011,5.421422561086676,3.41002076858526,1.9218575303711423,0.6589944945873756,-0.10973091294258354,-0.061186282204918,0.7415804890355846,11.024139306130614,13.205390680957594,-3.4443544045811567,-2.4209503659323355,-9.190188038135416,-0.0003229609167923705,-9.355502434795326,-2.5773801910062843,6.632678171451634,0.0,0.0,0.0,0.0,0.0,0.0,0.0,0.0,0.0,0.0,0.0,0.0,0.0,0.0,0.0,1032.3897175041818,1007.522582717821,1008.4519687757929,1064.077671285808,1021.2747137854188,1025.3405315836605,1028.6926339030456,1045.6458120585369,8.088852238030814,-1.693181582644074,-9.534449028740577,0.10676428260762563
154,1.5500000000000012,5.531195113458313,3.541915639430654,1.8877391600646858,0.6540521380534899,-0.08294638614447379,-0.10035458062668769,0.745160825513843,10.930305285989531,13.170975117372725,-3.3799033180398665,-2.283949433292819,-9.36543499591244,0.03276304015931174,-9.397997252699852,-4.144065797062169,6.2846761173864785,0.0,0.0,0.0,0.0,0.0,0.0,0.0,0.0,0.0,0.0,0.0,0.0,0.0,0.0,0.0,1023.9164870096444,997.235097464582,1006.3033388065646,1068.8360366590744,1018.6742304926564,1004.7195060444783,1018.4250363394673,1055.109734394968,7.1599457187181335,-1.4081270475435985,-9.714482960337085,0.10948741807383802
155,1.5600000000000012,5.640042827538528,3.6733933082659584,1.854192859465222,0.6475086881253201,-0.0547238139070378,-0.13881376570702506,0.7473075280257319,10.839995434205314,13.12245037118957,-3.332607900124942,-1.96755697509079,-9.444121608342941,0.06326695077210387,-8.878741656300093,-5.423273713221377,4.065100073368466,0.0,0.0,0.0,0.0,0.0,0.0,0.0,0.0,0.0,0.0,0.0,0.0,0.0,0.0,0.0,904.5873718469423,922.2727252518947,901.6697800607734,969.428582005281,906.8197402113016,914.8899193821588,906.0707643055435,953.933935422921,8.087974862892473,-1.4342096184242321,-9.999999999931307,0.11790999336116936
156,1.5700000000000012,5.748008885917463,3.8043271251860453,1.821031507302929,0.6393569953918592,-0.025006102550536893,-0.17619433087766875,0.7480326764555789,10.753816824059939,13.06254615477734,-3.3019056264073825,-1.6755004920760368,-9.58274506458311,0.08639778410171459,-8.4820217023438,-6.477107416939631,2.571954263973719,0.0,0.0,0.0,0.0,0.0,0.0,0.0,0.0,0.0,0.0,0.0,0.0,0.0,0.0,0.0,850.3751345762986,873.1951241031504,833.2738995523079,914.5588666144913,854.37247003996,866.6313663761981,846.1334175216215,896.6721793835609,10.759873180245291,-1.4827962159012709,-9.999999999999627,0.12498748784122637
157,1.5800000000000012,5.855120639947664,3.934600889224478,1.7881500547022107,0.6294796505573819,0.006032940105360954,-0.21298255376671865,0.7472331663937625,10.668567672682414,12.989947361434716,-3.274401617501616,-1.5560991080635296,-9.795242860636256,0.10600980725411839,-8.484950259754598,-7.843068194787861,2.64123841956998,0.0,0.0,0.0,0.0,0.0,0.0,0.0,0.0,0.0,0.0,0.0,0.0,0.0,0.0,0.0,921.4569771283443,906.1972951427252,884.2499625169763,957.5433644473895,920.226657100604,915.168940760355,902.0710488654189,944.3773529758208,14.309743527354845,-1.180092914391852,-10.0,0.18523122884208137
158,1.5900000000000012,5.961368282476737,4.064060206045874,1.75558812152344,0.6178334467740536,0.03784319386569107,-0.24943535367040598,0.744736013003706,10.5804524886552,12.898452749624912,-3.2360548778138063,-1.5198315142775836,-9.892572330947909,0.12315355260970663,-8.864069047803014,-9.981579775981686,4.06076250906251,0.0,0.0,0.0,0.0,0.0,0.0,0.0,0.0,0.0,0.0,0.0,0.0,0.0,0.0,0.0,1061.7592392022057,1044.932878660652,1039.3814166480254,1072.9482139355464,1066.324594414105,1056.0261705524683,1049.9384207339372,1074.802781530969,29.628522618029994,-1.105673248113729,-10.0,0.2038082234682314
159,1.6000000000000012,6.066711270316221,4.19247675824243,1.7234962097434667,0.6044557531992613,0.0701768312257301,-0.28506134466158184,0.7405730784758247,10.48747991307768,12.78015584744486,-3.17978980289906,-1.334794303240995,-9.94448022161407,0.1434539485659773,-9.36452908123897,-12.921454121940457,5.9306873682616335,0.0,0.0,0.0,0.0,0.0,0.0,0.0,0.0,0.0,0.0,0.0,0.0,0.0,0.0,0.0,1205.7381554160684,1211.7778511249435,1209.4905238563624,1237.4595948798258,1218.4871161837511,1216.621646851142,1223.5767928452099,1239.2164585307544,40.80774399955093,-1.1699384622464952,-10.0,0.20617291987435046
160,1.6100000000000012,6.171032218000871,4.319387287073233,1.692292981277713,0.5893760531196742,0.10288659270233522,-0.3195574196672213,0.7348015191783466,10.372492235847252,12.586230456299802,-3.045982106971122,-1.215521099901555,-9.971998043366828,0.16436594544149474,-12.202957100301504,-22.772396362892522,15.91219291274859,0.0,0.0,0.0,0.0,0.0,0.0,0.0,0.0,0.0,0.0,0.0,0.0,0.0,0.0,0.0,1726.585556401984,1734.2171351209238,1733.3000251394799,1748.2272587228338,1756.6208289221654,1758.2234621401897,1762.7669095170297,1770.2709323117833,42.63813485969256,-1.0260877173205463,-9.999999999999998,0.20874960000649007
161,1.6200000000000012,6.274089831479337,4.443860491902293,1.6628313973282274,0.5726732766657322,0.13558283007540434,-0.353061285483767,0.7273309721675738,10.236843691328463,12.292938143711849,-2.838236315932023,-1.1928804010086724,-9.986005723906336,0.1825867536155028,-13.831412897042483,-32.69317972091379,21.8526285721099,0.0,0.0,0.0,0.0,0.0,0.0,0.0,0.0,0.0,0.0,0.0,0.0,0.0,0.0,0.0,2048.3309634086086,2049.5020285448495,2052.567596390569,2056.7356900321856,2065.0564706098016,2065.889300351623,2068.6542163237987,2071.7527024583424,44.8621917228968,-0.9598540465232386,-9.432402695394222,0.2156649208047424
162,1.6300000000000012,6.375772394163885,4.565048269542962,1.6355304469043697,0.5543990377945628,0.1681246322813123,-0.3854829738889967,0.7181773400452228,10.100849698358259,11.937275648528757,-2.6251872543199344,-1.099542365198209,-9.993182442045262,0.19762807854247977,-13.212905454443202,-37.340316157889575,20.21005920085761,0.0,0.0,0.0,0.0,0.0,0.0,0.0,0.0,0.0,0.0,0.0,0.0,0.0,0.0,0.0,2107.636422580974,2110.7440198445906,2110.029169617327,2114.4240019547424,2111.975377661236,2113.1510152277374,2113.788710783607,2115.909375846979,44.13655134786063,-0.6189764385569617,-8.456559826733509,0.2737184324499973
163,1.6400000000000012,6.476131836602105,4.682451755513892,1.6102611027048457,0.534926192522675,0.19989620523987925,-0.41623698373644286,0.7075607741062802,9.97254095960206,11.536383971822556,-2.4327760852783142,-1.0233647753496617,-9.699597026328572,0.21024453967711798,-12.370346027379853,-41.76321898068558,17.950285664176224,0.0,0.0,0.0,0.0,0.0,0.0,0.0,0.0,0.0,0.0,0.0,0.0,0.0,0.0,0.0,2151.583732037116,2177.112979452843,2175.0356849463465,2157.280385307885,2162.110870509305,2172.9682582236996,2172.7990135373175,2164.6308247188385,43.38664844858627,-0.34546331303326483,-7.499993253153916,0.2937933783997235
164,1.6500000000000012,6.575266184346737,4.795695020996686,1.5867499320380443,0.5149873000072789,0.22990875258369917,-0.4442066987610922,0.6961396807339695,9.85661513739076,11.109183998786127,-2.276006743434759,-0.8031918070401073,-9.062332698469843,0.22632030236674117,-10.985487681415051,-43.579663069092334,13.959766093705639,0.0,0.0,0.0,0.0,0.0,0.0,0.0,0.0,0.0,0.0,0.0,0.0,0.0,0.0,0.0,2113.3060563846275,2178.608178805601,2176.9401513679068,2134.237462637863,2129.0423219736126,2163.044893874702,2166.20452987652,2143.6022888819134,42.61034233881763,-0.2524873236832115,-6.484448113911139,0.3058609066224246
165,1.6600000000000013,6.673310998991848,4.904591078625497,1.5646090750178832,0.4952630118650346,0.2575145597406691,-0.4686436137289718,0.6846706974239471,9.754637638928195,10.668040418305948,-2.1583915944613654,-0.5601888540296474,-8.27467713471457,0.24237914478216963,-9.592735760676874,-44.69961371747111,10.142265516432936,0.0,0.0,0.0,0.0,0.0,0.0,0.0,0.0,0.0,0.0,0.0,0.0,0.0,0.0,0.0,2081.8803555098157,2172.146685336912,2167.2152376331355,2108.4912731838663,2101.534994751647,2152.9039972427063,2154.339168643367,2119.4637230203284,42.51549472259196,-0.1615364264792027,-6.3710448425483355,0.3299814841241012
166,1.6700000000000013,6.770404514888811,5.009030750111861,1.5434603452679772,0.4763827208302024,0.2822304973803233,-0.4895279681432137,0.6736229049315688,9.666234978766163,10.218763417934959,-2.0770006251542537,-0.40058167910775744,-7.3751539325592255,0.2559591757314172,-8.27021345088852,-45.29257405534182,6.675818818545842,0.0,0.0,0.0,0.0,0.0,0.0,0.0,0.0,0.0,0.0,0.0,0.0,0.0,0.0,0.0,2057.732884978146,2158.209869077219,2155.8849425545436,2080.8468992279895,2077.9878051464284,2138.2382796717925,2140.4196055975367,2094.7270269770625,42.050210524432416,-0.07441696741716478,-5.752721177764539,0.33996540873127956
167,1.6800000000000013,6.866676535352896,5.108937701323783,1.5229665326412267,0.4582403187632615,0.30458964749551193,-0.5076603930421941,0.6629644652879589,9.590162729994848,9.761242488181706,-2.026632361153299,-0.27485651708882475,-6.893358660331455,0.2691260148614336,-7.071317831625734,-46.12190737569044,3.7368194079365757,0.0,0.0,0.0,0.0,0.0,0.0,0.0,0.0,0.0,0.0,0.0,0.0,0.0,0.0,0.0,2070.0737849858883,2139.0032384943306,2141.8123033577617,2091.3359422097888,2080.9896767122377,2128.6565767299826,2134.5605968692057,2097.9928886151065,40.86065371699152,-0.34125475864933985,-3.8628557368211247,0.3114175569626229
168,1.6900000000000013,6.96224764722414,5.204242828542508,1.5028303992441234,0.4407027108550499,0.3250413858561352,-0.5236008145711345,0.652664848989263,9.525997628157832,9.299320684259772,-2.005231015769615,-0.16827081767112959,-6.319603849091695,0.2816192463725771,-5.900103180181304,-46.35434181549947,0.9189141830265868,0.0,0.0,0.0,0.0,0.0,0.0,0.0,0.0,0.0,0.0,0.0,0.0,0.0,0.0,0.0,2061.587628332014,2125.374740922854,2129.834877782501,2080.5172245320578,2073.0352277528145,2113.940636234777,2120.7906055196277,2088.212496275118,39.867950403156506,-0.36015618942369076,-1.8913670573145596,0.2906064569662499
169,1.7000000000000013,7.05723402985615,5.294946801845468,1.4827682785842253,0.4252006140785258,0.3420748721053526,-0.5370104332812701,0.6432798879246995,9.47291191797635,8.842359952444092,-2.0113131145947993,-0.26424125088686756,-5.05760769878506,0.28810593131937523,-4.8903439738978705,-45.58178134488777,-1.654292766239962,0.0,0.0,0.0,0.0,0.0,0.0,0.0,0.0,0.0,0.0,0.0,0.0,0.0,0.0,0.0,2013.2583511338664,2119.9941600610455,2128.1632500709848,2013.9207107613618,2037.2142755577238,2096.2595348001014,2102.748429456776,2039.5895495779819,39.70040931511574,-0.20464485602646695,-0.8766798490503107,0.28928763728729195
170,1.7100000000000013,7.151733736094205,5.381120359390153,1.4625300494774067,0.41338378534653064,0.3541289646136192,-0.5472464299683543,0.635789168924063,9.428143970505177,8.393380769746058,-2.0393481308659283,-0.310527382558536,-3.4570720291150914,0.2904820816223173,-4.197364621857602,-44.728264085378555,-3.554295273335395,0.0,0.0,0.0,0.0,0.0,0.0,0.0,0.0,0.0,0.0,0.0,0.0,0.0,0.0,0.0,1967.069379357865,2117.5063951367606,2122.947141957489,1961.592385517218,1999.8414625995363,2086.963179927218,2089.8703146142784,1996.899926922141,39.18255839740252,-0.1162519847922372,0.7195971039084514,0.29133331308051835
171,1.7200000000000013,7.245814463798255,5.462823178356682,1.4419335321467053,0.4053010488423298,0.36156403884228944,-0.5543279244243738,0.6306528821996491,9.388692298361798,7.947426293791252,-2.0818405802541218,-0.24900659609367268,-2.1833363940870116,0.29144642617262895,-3.771235674836504,-44.54293809481946,-4.723143904371341,0.0,0.0,0.0,0.0,0.0,0.0,0.0,0.0,0.0,0.0,0.0,0.0,0.0,0.0,0.0,1966.6568587789657,2109.6056360755024,2108.407250249773,1967.6555814638486,1993.8885986500343,2084.6841426982014,2084.3516085815504,1993.4154610183239,36.36046445408542,-0.16181769703133234,2.1094661666601895,0.2683880676433358
172,1.7300000000000013,7.339517843927378,5.540089007958522,1.4208625590612998,0.40087925533055074,0.3647252922788557,-0.5583399451343911,0.6281144716411584,9.352300790561074,7.506566711350697,-2.1333574832971216,-0.17875350822471126,-0.7241893121255527,0.29202682914371375,-3.5675753537205424,-43.91956618881654,-5.378294248155502,0.0,0.0,0.0,0.0,0.0,0.0,0.0,0.0,0.0,0.0,0.0,0.0,0.0,0.0,0.0,1947.559000021928,2101.341551031155,2096.911465984549,1952.567760444351,1978.0731484845267,2073.4228645242397,2071.0918968716474,1980.25277799022,38.4721795872186,-0.13306276427173624,2.7302853022654574,0.28433950372339817
173,1.7400000000000013,7.432862324050398,5.613041627120506,1.399247940149552,0.4003907762313787,0.3634435532015242,-0.5593540826619259,0.6282666791693797,9.316488734435762,7.088059052615698,-2.1899858663288603,-0.1733961689954096,0.6918534801666235,0.2892487321397186,-3.6209836920040317,-41.06953456263529,-5.70724414371826,0.0,0.0,0.0,0.0,0.0,0.0,0.0,0.0,0.0,0.0,0.0,0.0,0.0,0.0,0.0,1876.9318905087553,2033.4395606126427,2027.0563286261934,1875.0538525021236,1903.4798377883424,2003.2787321984688,1997.5456098220143,1900.8676742663731,39.14290321056832,-0.06489734998698966,3.091356068852015,0.3134129617175755
174,1.7500000000000013,7.525843084195311,5.681819834168128,1.3770747325067088,0.40320039066263647,0.35845608942679047,-0.557921229467275,0.6306049307070749,9.279286837932395,6.66520943891105,-2.243611628298832,-0.15318002288898017,1.6910620281599098,0.2874912394251566,-3.8344373481589145,-42.68969507686826,-5.082882017613866,0.0,0.0,0.0,0.0,0.0,0.0,0.0,0.0,0.0,0.0,0.0,0.0,0.0,0.0,0.0,1944.5615314682482,2064.4797976382583,2061.674292339655,1945.8156737275838,1967.3411379622555,2048.0612027896727,2045.6938627872194,1968.5239367710267,39.99074719664345,-0.07806013396349346,3.5529368583702583,0.3211240759143373
175,1.7600000000000013,7.618437687854174,5.746320957895719,1.354400110174682,0.40824727584584214,0.3508775676931139,-0.5546572635042399,0.6344875209932828,9.239005271348477,6.2344409289143945,-2.2899097657165703,-0.10765052048720357,2.375528580991984,0.28995765829001086,-4.2044818151563135,-43.13866134885025,-4.245864325510773,0.0,0.0,0.0,0.0,0.0,0.0,0.0,0.0,0.0,0.0,0.0,0.0,0.0,0.0,0.0,1978.819517404773,2064.1349280669187,2064.8484828193427,1987.198845217908,1992.6295294677618,2052.8059208850946,2054.819000267969,1999.7979845927262,40.73482660725404,-0.05836862279894886,3.8279989366570946,0.3170402796123726
176,1.7700000000000014,7.710608624729276,5.806490775353255,1.3313100942406726,0.4149261150803331,0.3412894850408704,-0.5499476610280597,0.6394649142483473,9.19435533795578,5.798900544858863,-2.3262306403482422,-0.09552509490845916,2.9594478329950875,0.2943056589691496,-4.693893594323484,-43.61537893481504,-3.1297870815230056,0.0,0.0,0.0,0.0,0.0,0.0,0.0,0.0,0.0,0.0,0.0,0.0,0.0,0.0,0.0,2009.5815019302563,2076.2484249535914,2078.8046641404108,2017.7324863011604,2021.5969721207355,2067.061701988906,2070.084209695168,2028.9330984489004,41.74789263547109,-0.09116308886889285,3.926983078468312,0.30504322101679915
177,1.7800000000000014,7.802306374310743,5.862285278999455,1.307917000561358,0.42284190724618326,0.330056455963284,-0.5440411484673063,0.6452028255732775,9.144200431143668,5.35964266148638,-2.3501898788109306,-0.0783228989695739,3.386526660886661,0.297964907654131,-5.286702352210071,-43.92674666064522,-1.8075412973885818,0.0,0.0,0.0,0.0,0.0,0.0,0.0,0.0,0.0,0.0,0.0,0.0,0.0,0.0,0.0,2037.5034963881787,2088.2770334175107,2089.648146212226,2043.925086721587,2046.553310748166,2081.643939479683,2083.1651333159057,2052.3365704818116,42.843505062288266,-0.13217053030962064,3.871551715262632,0.2968170561499372
178,1.7900000000000014,7.8934708495544745,5.913666275266978,1.284355473444261,0.431547267734908,0.3176320885072819,-0.5372618160187014,0.6513267636980112,9.087546179150031,4.915984960484804,-2.359582483869424,-0.0884426761505613,3.6489230672276136,0.29948424104898724,-5.974804819469881,-44.39486955369265,-0.27324050749477635,0.0,0.0,0.0,0.0,0.0,0.0,0.0,0.0,0.0,0.0,0.0,0.0,0.0,0.0,0.0,2073.3721750479313,2105.7465430428906,2105.891439026763,2075.6882810546836,2079.0146371609676,2102.921048520051,2102.6814049958684,2081.356574399579,43.70035485585176,-0.17993832732257847,3.7199848847657506,0.28635782146302663
179,1.8000000000000014,7.984032592781612,5.9605865023504485,1.2607800495448167,0.44061487350516887,0.30448309030393667,-0.5299825009127981,0.6574702500426958,9.023531858893564,4.46750788894262,-2.352769327693645,-0.11423609539157167,3.752838892112532,0.29916381974844813,-6.7398338554856,-44.86229643008599,1.3908662628221435,0.0,0.0,0.0,0.0,0.0,0.0,0.0,0.0,0.0,0.0,0.0,0.0,0.0,0.0,0.0,2110.3699319576062,2124.8088303703175,2124.7399039474603,2109.668024217752,2112.6140347095325,2125.3911619404357,2124.4471134174023,2112.675677962286,44.36283821170798,-0.22582880961376753,3.514846439770574,0.27718627514323474
180,1.8100000000000014,8.073915116286882,6.003006464968468,1.2373558827365498,0.44967704103350997,0.2910409217387955,-0.5225406058048537,0.6633528894380999,8.95164788037277,4.016377673544144,-2.32935086656703,-0.151106970645486,3.7306447928746995,0.29718287545657013,-7.539663750481651,-45.035786300983816,3.0451061778467015,0.0,0.0,0.0,0.0,0.0,0.0,0.0,0.0,0.0,0.0,0.0,0.0,0.0,0.0,0.0,2139.8682128986693,2139.7019160305667,2139.0340947467425,2136.5227677445587,2139.3194942370383,2142.4277379789496,2140.6289152918216,2137.1140651752485,44.99914804217919,-0.2845393281684546,3.244009671846114,0.2723055388470716
181,1.8200000000000014,8.163038579202333,6.040913318399573,1.2142472021854458,0.45846514498339913,0.27765063999703227,-0.515202082951429,0.6687949212330326,8.871709250732298,3.5652616616176576,-2.289788554024521,-0.19223218238376516,3.618736280761138,0.29383886078077803,-8.347016576070843,-44.958027653058785,4.629026320133178,0.0,0.0,0.0,0.0,0.0,0.0,0.0,0.0,0.0,0.0,0.0,0.0,0.0,0.0,0.0,2162.0273558003555,2151.4674742349903,2150.218594761707,2157.0158365444154,2159.63834575288,2155.47824850139,2153.062402013933,2155.945137899795,45.04129392707553,-0.3805036230672655,3.153226412230125,0.3274205964587774
182,1.8300000000000014,8.251322122386354,6.074314963229153,1.1916122393324045,0.46678197195135024,0.26458997267039475,-0.5081992558088647,0.6736766683052076,8.78366447698397,3.1154534534227487,-2.2347299249591335,-0.24251894238751648,3.4278618168960087,0.2898957069274587,-9.155691004318456,-44.80170337234268,6.142281398637817,0.0,0.0,0.0,0.0,0.0,0.0,0.0,0.0,0.0,0.0,0.0,0.0,0.0,0.0,0.0,2181.880082806225,2162.6873304523488,2161.884472823578,2176.0157216893585,2178.023359089881,2168.0501135550912,2165.941600694388,2173.722472919033,44.51937456174512,-0.47923967267693623,2.7138607442846694,0.33963622445548103
183,1.8400000000000014,8.338686675654174,6.1032420757770645,1.1695964914132544,0.47463991026433455,0.2518458269212895,-0.5016321860175474,0.6779791921569961,8.688012697156816,2.6711691662403494,-2.1663764826009477,-0.31709551181844636,3.293213807990703,0.29227751653873,-9.897091296400262,-44.09519767590852,7.378038774734641,0.0,0.0,0.0,0.0,0.0,0.0,0.0,0.0,0.0,0.0,0.0,0.0,0.0,0.0,0.0,2178.6159621636684,2160.0272162578894,2170.1352564084705,2180.607186915461,2174.928703380002,2163.619306781498,2171.9511723598057,2179.2955041612213,44.12582159898858,-0.5791389605678994,2.2883271800872,0.34845693706006325
184,1.8500000000000014,8.42506012295315,6.127777175858629,1.1483177073826571,0.48189490044446076,0.23958868392015145,-0.4957412785328659,0.6816268423570427,8.58559734895218,2.237784383336873,-2.087875708620038,-0.4035570235716173,2.9959463931228023,0.29822626738738217,-10.539016635151555,-42.87413066501111,8.268507575801554,0.0,0.0,0.0,0.0,0.0,0.0,0.0,0.0,0.0,0.0,0.0,0.0,0.0,0.0,0.0,2171.6868543526143,2141.219307553574,2154.3401590105505,2174.132848569401,2164.4835261882417,2147.610245418946,2157.959872268464,2169.2167591345683,43.820993931736595,-0.6630924655611414,1.8559002676065508,0.35259103435212863
185,1.8600000000000014,8.510377908405708,6.148036337986148,1.1278658848089376,0.4883151444727874,0.22815961598900045,-0.49084018543329644,0.6845198475384625,8.47693772255213,1.8157800739676062,-2.0012331593851624,-0.496491051161884,2.6389679892362228,0.3048307746796438,-11.146687758698093,-41.78035886183196,9.01127318508177,0.0,0.0,0.0,0.0,0.0,0.0,0.0,0.0,0.0,0.0,0.0,0.0,0.0,0.0,0.0,2166.2268905684314,2126.6980550419903,2141.176249382572,2168.4007793857822,2157.6319045848622,2134.859081482937,2146.2612029447137,2162.2035496325825,43.58885019331607,-0.7516856170244265,1.4313267768802262,0.35565995074887413
186,1.8700000000000014,8.59457932802844,6.164126618577266,1.1083150158786559,0.49380236781839365,0.21774359146948777,-0.4870854257166614,0.6866547443696398,8.362389967135861,1.4037867940247208,-1.9079437096994387,-0.5839986895725329,2.2457160511813603,0.3112372133905688,-11.716249572137016,-40.82965714954234,9.60241091853442,0.0,0.0,0.0,0.0,0.0,0.0,0.0,0.0,0.0,0.0,0.0,0.0,0.0,0.0,0.0,2161.1432590764334,2116.9960644196835,2131.1622130614983,2162.920157273812,2152.23628312942,2125.7430905924048,2136.9163643903157,2156.2654472275117,43.40211015893399,-0.8065434897073281,0.9890150746899311,0.35315975984250164
187,1.8800000000000014,8.677607491802021,6.176141146495097,1.0897239118795992,0.49831912783023996,0.20844384519885917,-0.4845642862213293,0.6880600720547857,8.242356527867255,1.0004085383915933,-1.8095407125619691,-0.6720503650969017,1.837694579431104,0.31720567945220035,-12.244822474139383,-40.02012910417907,10.040349559993889,0.0,0.0,0.0,0.0,0.0,0.0,0.0,0.0,0.0,0.0,0.0,0.0,0.0,0.0,0.0,2156.710114103328,2110.380850436468,2124.1014957864277,2157.897165154287,2147.7535846645205,2119.360356304603,2130.155402951494,2151.1397344670704,43.16844374595137,-0.8650526643623762,0.5396438856971598,0.3541574457692456
188,1.8900000000000015,8.759409718297634,6.184159555275033,1.0721358608194347,0.5018377908848708,0.20035307216747572,-0.48330958915785793,0.6887882977671075,8.117285177381508,0.6043598585181036,-1.707598784477569,-0.7418368620183878,1.4123176207262358,0.32219039801458177,-12.724993164674459,-39.337383019153236,10.320636804275862,0.0,0.0,0.0,0.0,0.0,0.0,0.0,0.0,0.0,0.0,0.0,0.0,0.0,0.0,0.0,2153.2022672617154,2105.972455208952,2117.481954369822,2153.8300186590704,2144.2347847262936,2115.074036483264,2124.1063301187473,2146.653323673139,43.05093030809064,-0.9353054210031163,0.08335139808550646,0.3591115621480969
189,1.9000000000000015,8.83993869066121,6.188250868121737,1.055577345610637,0.5043311699376911,0.19355650879471886,-0.4833415643156495,0.6888881484953713,7.987823234726895,0.21488450294438532,-1.6039491900723335,-0.8059889464513954,0.9751104685692641,0.32657043932959334,-13.133483398028112,-38.713162299954085,10.408922335044979,0.0,0.0,0.0,0.0,0.0,0.0,0.0,0.0,0.0,0.0,0.0,0.0,0.0,0.0,0.0,2148.2539860348616,2100.1789899580963,2110.4811263278584,2148.755047077916,2139.1323021894273,2109.2827936443396,2117.466414191231,2141.183575404469,42.9776972437471,-0.9864827953307701,-0.3731177120548924,0.3619606412639805
190,1.9100000000000015,8.91915319269836,6.188474058074901,1.040057884031575,0.505782563427522,0.188097768484319,-0.4846997580665386,0.6883817055632311,7.854461242981155,-0.16956766017940428,-1.499998280541668,-0.8734733153907707,0.5284294874120508,0.3311200070616736,-13.501986491536222,-38.28127872686412,10.37635914789714,0.0,0.0,0.0,0.0,0.0,0.0,0.0,0.0,0.0,0.0,0.0,0.0,0.0,0.0,0.0,2145.778578277078,2096.500403974366,2107.020627152485,2146.206279887441,2136.565388804277,2105.9631270250593,2114.298480935465,2138.6416071208732,42.963768437373616,-1.034968449073008,-0.7861963011955178,0.3652384834251324
191,1.9200000000000015,8.99701654342279,6.184871149767743,1.0255737378998635,0.5061727821822376,0.1840111571154187,-0.48739783866714154,0.6872935002584682,7.717683837961073,-0.5505646294514572,-1.3971316978185129,-0.9316663534298542,0.07703514695525486,0.33581892766668436,-13.817514121487129,-37.9927535647473,10.199165369193963,0.0,0.0,0.0,0.0,0.0,0.0,0.0,0.0,0.0,0.0,0.0,0.0,0.0,0.0,0.0,2144.239204119068,2094.6191783824615,2104.546974010231,2144.622488497444,2135.0883101831423,2104.155137300988,2112.0446127423284,2136.9465635007314,42.995315351846855,-1.0817300264542415,-1.1529780367654436,0.36795677887562955
192,1.9300000000000015,9.073497178601203,6.177469251850573,1.0121070824314402,0.5055111723844776,0.18128157066690254,-0.49139304755132585,0.6856590403030011,7.578005121771247,-0.9296032074430151,-1.2967277365171734,-0.9846428918696974,-0.35407588679551083,0.34064611621875956,-14.08258171487553,-37.854434451147775,9.888726322077046,0.0,0.0,0.0,0.0,0.0,0.0,0.0,0.0,0.0,0.0,0.0,0.0,0.0,0.0,0.0,2143.134417966671,2095.2108090361116,2104.5461384659266,2143.5392574498965,2134.5636771139916,2104.2761062193,2111.7885176417603,2136.238567175275,43.06945359719661,-1.124034943360619,-1.4615047019290786,0.36900183995673497
193,1.9400000000000015,9.148568636590515,6.166280899793405,0.9996266293025503,0.5038467410535938,0.17982361745871644,-0.4965982997239241,0.6835144891259011,7.435934505027473,-1.3080627840740175,-1.2001110787337828,-1.0342114081634945,-0.7524848617113586,0.3455555973227982,-14.29737546870058,-37.84697218128419,9.448829466917719,0.0,0.0,0.0,0.0,0.0,0.0,0.0,0.0,0.0,0.0,0.0,0.0,0.0,0.0,0.0,2142.5109315935447,2097.7312846361133,2106.4833325805944,2142.697180600543,2134.7225477982784,2106.087157255748,2113.12300066215,2136.0702303477083,43.015668281332324,-1.1991882206161881,-1.6889558822876674,0.33646214267709723
194,1.9500000000000015,9.222209443543932,6.151305643435531,0.9880881924143766,0.5012567471793986,0.17950512209290223,-0.5028899424626531,0.6808974154154576,7.291953967143598,-1.6871661166154694,-1.1085260820559781,-1.0797276256164898,-1.1054494898887597,0.35031610561669446,-14.466014555518214,-37.95503817227552,8.88992237238262,0.0,0.0,0.0,0.0,0.0,0.0,0.0,0.0,0.0,0.0,0.0,0.0,0.0,0.0,0.0,2142.4340448881617,2102.1159480360966,2109.997383923352,2142.110717018249,2135.6366680878637,2109.533201414572,2115.808601706915,2136.3711541368943,42.96212936163208,-1.2379712316815568,-1.8983227540258678,0.29522247538086094
195,1.9600000000000015,9.294403870568884,6.132535608002614,0.977433771387758,0.49787122258607935,0.18011700325871555,-0.510137624862508,0.6778212998699447,7.1467802919767625,-2.0669669515799334,-1.0235836878165772,-1.1412610429437824,-1.3949130697752485,0.35112903505576004,-14.557299350678399,-38.02225711169438,8.158757946298945,0.0,0.0,0.0,0.0,0.0,0.0,0.0,0.0,0.0,0.0,0.0,0.0,0.0,0.0,0.0,2141.794037248311,2106.571912406501,2109.173146061771,2134.5580759103113,2135.9233604563983,2112.785371508163,2113.3304239720374,2130.0382104023115,42.676625011769325,-1.2384824075563101,-1.987548448748667,0.2918080550778634
