,t,px,py,pz,qw,qx,qy,qz,vx,vy,vz,omex,omey,omez,accx,accy,accz,taux,tauy,tauz,jerkx,jerky,jerkz,snapx,snapy,snapz,bomex,bomey,bomez,baccx,baccy,baccz,mot1,mot2,mot3,mot4,motdex1,motdex2,motdex3,motdex4,f1,f2,f3,f4
1,0.02,-5.590696911609386,3.4537131130234835,0.5015194005973149,1.0,1.2165270103623684e-27,5.303110032292305e-28,3.800941958135414e-28,-2.1850690422554694e-25,-3.4127936196018113e-26,-0.09804415001073609,-4.141282798647678e-26,2.3232383638905356e-26,-9.193392323964714e-27,9.06425317979306e-27,1.3390096172332533e-26,-9.80244876495455,0.0,0.0,0.0,0.0,0.0,0.0,0.0,0.0,0.0,0.0,0.0,0.0,0.0,0.0,0.0,0.0,0.0,0.0,0.0,0.0,0.0,0.0,0.0,13.525673946681698,10.0,2.7407608795000633,0.2734894698040471
2,0.03,-5.590696781456422,3.4537122021102578,0.5004625444658792,0.999981627374997,0.005985026194440294,0.0009556993176581005,-0.00010494150153946225,7.190303141617776e-05,-0.00048107091880040983,-0.08311730485063455,3.2487437394460397,0.5822703883983648,-0.061522034421097264,0.026148684207106816,-0.16605043304345954,6.188853947100295,0.0,0.0,0.0,0.0,0.0,0.0,0.0,0.0,0.0,0.0,0.0,0.0,0.0,0.0,0.0,0.0,2326.486304636958,506.85704270409,1923.0215080356375,0.0,2185.94169360442,1013.9645979147824,1798.4502934509796,13.525673946681698,10.0,2.7407608795000633,0.2734894698040471
3,0.04,-5.59069269139057,3.453689013947505,0.4998669640086927,0.999507452497266,0.030692065007861796,0.006530231454815288,-0.00045345906676770646,0.0009877291000104315,-0.005211354089632817,-0.03977696659638676,6.283943498346422,1.5823863942746148,-0.06270281528891061,0.16512739621454114,-0.7827194116290601,3.653105909310707,0.0,0.0,0.0,0.0,0.0,0.0,0.0,0.0,0.0,0.0,0.0,0.0,0.0,0.0,0.0,654.0708901178494,1823.1221711793542,1158.5235876852569,1701.718767606584,846.3131827938378,1740.7160616474337,1201.169209655573,1682.544720394179,13.525673946681698,10.0,2.7407608795000633,0.2734894698040471
4,0.05,-5.590670173499637,3.453580615588132,0.49964991353751104,0.9976538772644269,0.06660013552998649,0.015837298794788596,-0.000585741861098665,0.003933506286815981,-0.018077891436035276,-0.003743968191776358,7.935443749184913,2.1024408620096304,-0.010440229591731812,0.4113206892571164,-1.733846765650665,3.5697457594421764,0.0,0.0,0.0,0.0,0.0,0.0,0.0,0.0,0.0,0.0,0.0,0.0,0.0,0.0,0.0,1037.099000005509,1638.9560237249189,1298.9208678643654,1598.0764783618451,1109.0249430279412,1598.7279518187595,1325.6684370238713,1573.7974532616515,13.525673946681698,10.0,2.7407608795000633,0.2734894698040471
5,0.060000000000000005,-5.590604710839239,3.453292290785821,0.4997881304228075,0.9937145433507955,0.10862010786565875,0.02707234482758827,-0.00040822286666924366,0.009660594841279567,-0.041453782547319316,0.03106923373300645,8.850611919725244,2.393396001468237,0.04697414027612804,0.7100534516909107,-2.8472349046762266,3.386459455823755,0.0,0.0,0.0,0.0,0.0,0.0,0.0,0.0,0.0,0.0,0.0,0.0,0.0,0.0,0.0,1209.474980044744,1533.286938313201,1361.7477085818532,1532.0746358303136,1244.2063962369648,1510.6613760158505,1374.5791202602986,1516.7358074893114,17.52454350082373,4.752258321619551,0.16534608796738803,-0.10004249869589943
6,0.07,-5.59046648146531,3.452712926449124,0.5002624855285808,0.9873106371127732,0.1538592143781984,0.039307012166581785,8.239799720122851e-05,0.01852509274184692,-0.07639113140638096,0.06324176249630084,9.35922197979327,2.5548360716178427,0.10487474640088601,1.0329616669349575,-4.027868691519901,3.057598631907167,0.0,0.0,0.0,0.0,0.0,0.0,0.0,0.0,0.0,0.0,0.0,0.0,0.0,0.0,0.0,1298.7360139576601,1474.6465082995267,1391.712806935453,1490.1624294598798,1317.8086693849916,1462.3339123153746,1397.4095317713904,1480.6448113236133,22.900988370859853,6.841657157648092,0.5609981286171412,-0.024556517458578356
7,0.08,-5.590216237511995,3.451696406856489,0.501119348967666,0.9795504076163165,0.19507938132812028,0.04924109149888483,0.0005906160722390074,0.03254054063853221,-0.13097495607006632,0.1129331972609576,7.252659816352077,1.4402379821504465,0.1329015683826342,1.6222079664902356,-6.371594926248849,5.7559621301433435,0.0,0.0,0.0,0.0,0.0,0.0,0.0,0.0,0.0,0.0,0.0,0.0,0.0,0.0,0.0,1925.3317350204643,1181.6946949679011,1691.1178614243142,1446.2304837496392,1787.5000915856322,1476.5070258828,1647.3199326409465,1517.3515818270073,25.50136573646656,6.450287422102284,0.7859421056050323,0.0899600149065455
8,0.09,-5.5897907115985745,3.4499858812085513,0.50266155918038,0.9716538798820765,0.22989081322216323,0.055122282410477806,0.0006969132077691047,0.053833599086460945,-0.21697448980882258,0.20248525566187753,7.125842936545138,1.0707900328435238,0.13883168734687903,2.4034538146120163,-9.92827357271206,10.202682851140649,0.0,0.0,0.0,0.0,0.0,0.0,0.0,0.0,0.0,0.0,0.0,0.0,0.0,0.0,0.0,1913.0204946275883,1771.2752138405963,1796.296135936674,1827.6436675176233,1948.814671470508,1765.8677854546797,1833.9619092524495,1816.4935905090122,26.532852696897272,5.709375832354949,0.8138431494632384,0.1403487044811538
9,0.09999999999999999,-5.589119363175569,3.4472537757008967,0.5052545698575487,0.9627937436994031,0.26354223266024474,0.0597773791395837,0.0006030264871801991,0.08121931905045138,-0.3338667735641129,0.31833789901017046,6.802154454212448,0.9468190998168707,0.14275817509451663,2.9117852755561473,-12.725733655066184,11.873298665037446,0.0,0.0,0.0,0.0,0.0,0.0,0.0,0.0,0.0,0.0,0.0,0.0,0.0,0.0,0.0,1981.362960130702,1906.3112333170227,1945.0542293325288,1920.726412099841,1979.5640361551395,1918.9440553605534,1942.0107408407687,1936.1589084673483,27.471810567120517,4.71460313199526,0.7133273616513514,0.19899182655724862
10,0.10999999999999999,-5.588154236854564,3.443233834053206,0.5090418091301291,0.9533614301282197,0.29497403373689285,0.06396870706085359,0.0005545104371178906,0.11229950951532269,-0.4733784624299374,0.4389246043174944,6.306610791214738,0.8896816419777813,0.15076855908271616,3.2243977612142203,-14.751333938669342,11.888924012059377,0.0,0.0,0.0,0.0,0.0,0.0,0.0,0.0,0.0,0.0,0.0,0.0,0.0,0.0,0.0,2031.508952402416,1930.9793251415488,2017.774291324067,1941.3326448695873,2017.7398065423076,1950.0048555839594,2004.9288501552983,1959.3950264615269,28.59960009111977,3.5188323039350067,0.5531797614957035,0.2441325811976607
11,0.11999999999999998,-5.586863457238348,3.4377214709018937,0.5140287104914483,0.9439010811210367,0.32319895805140986,0.06776989903928267,0.000650659071067635,0.14630477825389993,-0.632056882054602,0.5579655854779743,5.58674371128962,0.8110313136188626,0.1617742301994441,3.5059862958057018,-16.589468655941353,11.678307275825528,0.0,0.0,0.0,0.0,0.0,0.0,0.0,0.0,0.0,0.0,0.0,0.0,0.0,0.0,0.0,2081.9751489607415,1939.866667633849,2075.2626630854706,1962.5410676879321,2061.095427549275,1966.4586735230157,2058.2975603316822,1984.4035224308368,29.548621508679858,2.7799726646391605,0.511638541152653,0.23451598594548237
12,0.12999999999999998,-5.585218133120438,3.4305296774590364,0.5201984855310613,0.9350758359334773,0.3472552992467406,0.07103576668970009,0.0009263094363146575,0.1832173876552734,-0.8091759771357473,0.6757148467624575,4.6536773453644775,0.6944846009959494,0.1743679214531968,3.7953173623480883,-18.388600278578803,11.599324131428833,0.0,0.0,0.0,0.0,0.0,0.0,0.0,0.0,0.0,0.0,0.0,0.0,0.0,0.0,0.0,2139.3421986717494,1955.7691234878878,2133.4467563709427,1990.952166131548,2113.199359417137,1989.609587870422,2113.1811036404238,2017.0660284169896,29.50090727880083,1.7123842210248215,0.25316855390740345,0.23725104104578207
13,0.13999999999999999,-5.583189944145738,3.421481879398737,0.5275396857835054,0.9273078811196137,0.36695380678650086,0.0737769000354499,0.0014022551505242136,0.22282230893099864,-1.0028136626360515,0.7921606353155253,3.8165768727913663,0.6150373895400449,0.18461296560933682,4.052292392552364,-19.929861752040146,11.464584712156277,0.0,0.0,0.0,0.0,0.0,0.0,0.0,0.0,0.0,0.0,0.0,0.0,0.0,0.0,0.0,2166.037115205925,2002.6266052051958,2161.124809133759,2028.7725180569382,2146.8809034101846,2027.8194740259635,2144.6122416240896,2049.5029985240485,28.764497022384468,0.46660474948814623,-0.11325532706798314,0.23085884680408603
14,0.15,-5.580756984465375,3.4104430181425456,0.5360199040224334,0.9208794622609134,0.3823834095643604,0.07589376100402505,0.0020201773807405204,0.2639415242460148,-1.2061150371976401,0.9027405662761747,2.867401070469989,0.44720146678692746,0.19249961333304905,4.155744810348027,-20.627541965380747,10.760197990519748,0.0,0.0,0.0,0.0,0.0,0.0,0.0,0.0,0.0,0.0,0.0,0.0,0.0,0.0,0.0,2178.776024407604,1989.5395823128492,2162.722939325598,2025.8464644316578,2151.040529470521,2020.9382947543554,2143.358777731848,2046.3449112637811,28.10779682611679,-0.3223404097926309,-0.09022544109024962,0.23898075046582537
15,0.16,-5.577911434617141,3.3973554915958637,0.5455599410135499,0.9162825051362551,0.39305633601003337,0.0769812141035793,0.002642002788670859,0.30511582993790876,-1.4114399126171153,1.0037903788245202,1.7852089564612563,0.18710217563818118,0.19788620030661014,4.11134018962761,-20.590629553641993,9.779785707570209,0.0,0.0,0.0,0.0,0.0,0.0,0.0,0.0,0.0,0.0,0.0,0.0,0.0,0.0,0.0,2173.5311812540144,1944.3726427755626,2141.9523048971164,1993.933652689086,2138.6421318715998,1982.01171738217,2119.9296514504204,2014.884993787322,26.756673145374172,-1.0185987651660962,-0.013640277189641059,0.2438036966116236
16,0.17,-5.574657107893269,3.3822198780567785,0.5560676142376559,0.9136727461040222,0.39904552552391115,0.07716151124895658,0.0032989040388938648,0.34563665952826617,-1.6153871202583454,1.0966789103988057,0.8436970153100346,0.06580529487191543,0.20170676155321365,4.0318929627263245,-20.35996968728071,9.067197165912644,0.0,0.0,0.0,0.0,0.0,0.0,0.0,0.0,0.0,0.0,0.0,0.0,0.0,0.0,0.0,2132.994512477703,1939.4684367413172,2118.015926474821,1971.0525043157184,2108.3190747884387,1964.4747377085441,2096.881601791136,1991.368398327564,24.42865855761436,-1.6267028832066868,0.20823333807620834,0.24698991723327046
17,0.18000000000000002,-5.571004589854422,3.365074112770346,0.5674596774617552,0.9128403302390745,0.40097513008701113,0.07696849967322704,0.004162523126008897,0.3846029102804642,-1.8124622662358352,1.1803498131689314,0.009346339360883804,0.03190694580328647,0.2053421545966308,3.848831673889719,-19.463072469165343,8.111730009589868,0.0,0.0,0.0,0.0,0.0,0.0,0.0,0.0,0.0,0.0,0.0,0.0,0.0,0.0,0.0,2068.6632510566033,1908.09234685528,2069.156058145933,1923.4894352857589,2047.0249004538584,1926.7499009942885,2047.0675884657664,1942.2447900447241,25.139497485180755,-2.063487153409527,0.39595165700165047,0.25086099448304827
18,0.19000000000000003,-5.566975471777015,3.3460261678429357,0.5796250651307043,0.9135594303508935,0.3993360698600355,0.07688115200722165,0.0053999066412645826,0.4207850108665898,-1.9945686085340208,1.2506735603005124,-0.7239468305528246,0.11676492678290121,0.20878401324133591,3.542838074299448,-17.71684978279775,6.6723439266827,0.0,0.0,0.0,0.0,0.0,0.0,0.0,0.0,0.0,0.0,0.0,0.0,0.0,0.0,0.0,1966.357094226909,1838.0092888337651,1985.734416509277,1833.3653252205513,1947.4620983171542,1849.345926766903,1960.5211380436044,1851.6854373886683,27.250169836485505,-2.344126418077082,0.6074356097739332,0.25346417274004
19,0.20000000000000004,-5.5625873778403845,3.325186838541083,0.5924789907928576,0.9155451675227484,0.3946603179814891,0.07726276380488878,0.007123550078605323,0.4570515921870467,-2.173550843128182,1.3210129571659448,-1.3223832930629214,0.24513277322740132,0.21204324430468274,3.6777991122034503,-17.9083912293998,7.236777834476182,0.0,0.0,0.0,0.0,0.0,0.0,0.0,0.0,0.0,0.0,0.0,0.0,0.0,0.0,0.0,1971.1699584566516,1878.2802243321264,1999.9905789216682,1863.9092659288062,1961.8863653055519,1890.4997274691239,1983.062229965176,1884.4210591986532,26.987309795126293,-2.517393019150804,0.8728527903834806,0.2531289589130124
20,0.21000000000000005,-5.557822643140938,3.3025195092168214,0.6060959492747128,0.918465783923108,0.3875598730456688,0.07829689891892018,0.009356505064203342,0.4965142915078967,-2.361501817365389,1.4049252775176373,-1.7781951640734146,0.4112909245708803,0.2147811102972261,4.0800051846517915,-19.037053172175522,8.91553864961181,0.0,0.0,0.0,0.0,0.0,0.0,0.0,0.0,0.0,0.0,0.0,0.0,0.0,0.0,0.0,2030.3722515111365,1973.489114489537,2064.6668893429096,1953.1261544602046,2028.7075280992015,1983.2437724999684,2053.955293418261,1972.4236511314186,26.72111211621013,-2.583857315283288,1.1413386507105883,0.2542182366212644
21,0.22000000000000006,-5.5526512978656655,3.277962769528918,0.6205955699891095,0.9219904338342457,0.3786270115272967,0.08017681374648546,0.012120420682029785,0.5379885950668615,-2.548986427539464,1.4954806978502706,-2.10800078208554,0.6235360560690766,0.21651277138685265,4.216951741854547,-18.524509429323377,9.200985023143815,0.0,0.0,0.0,0.0,0.0,0.0,0.0,0.0,0.0,0.0,0.0,0.0,0.0,0.0,0.0,2009.8808519304755,1983.6588057389042,2051.193999248501,1955.5353907482138,2008.3438925269088,1984.7478438818603,2038.3942708700865,1968.3783144601555,27.00843074327718,-2.5589847164318993,1.3948918276522024,0.2537945823446259
22,0.23000000000000007,-5.547057950285754,3.251561015896276,0.6360128383796887,0.9258206877281148,0.368398935058844,0.08306882498758575,0.015422358358310254,0.5809831347563765,-2.730287341615279,1.588389526760887,-2.319952517626829,0.8607230258947873,0.2171244544891433,4.389854259783665,-17.85800708529095,9.42672149069712,0.0,0.0,0.0,0.0,0.0,0.0,0.0,0.0,0.0,0.0,0.0,0.0,0.0,0.0,0.0,1987.0704016171755,1987.1520746619085,2033.4178251013843,1954.4037639165804,1988.7206770439573,1984.5540461686478,2022.7671684182574,1964.520016261012,27.238849683123327,-2.4720867470596777,1.6390765173857202,0.25171693220949215
23,0.24000000000000007,-5.541022425465863,3.223370400114079,0.6523813779160031,0.9296977450710318,0.35737112784428465,0.08705257760516134,0.019230926276188397,0.6266520370367806,-2.9071882952189965,1.6862932569487996,-2.426124982969152,1.1047134378755699,0.21657546270616962,4.708659879915422,-17.490864730443256,10.030443176805681,0.0,0.0,0.0,0.0,0.0,0.0,0.0,0.0,0.0,0.0,0.0,0.0,0.0,0.0,0.0,1986.195399529684,2007.4086342682235,2034.0781367688671,1973.4104038398696,1991.4598613583885,2003.1793685845917,2026.9882360411946,1981.7759879823125,27.30764402686574,-2.3023642966939333,1.8629727588250837,0.24922290531904936
24,0.25000000000000006,-5.5345130935622935,3.193430500165791,0.6697587274359007,0.9334124105941908,0.3459728702021478,0.09215262054771707,0.02349338968769782,0.6758459169091232,-3.08004561148533,1.790110087803576,-2.4463424639328992,1.3486516230976269,0.21487559638842407,5.088747197913079,-17.06382623896685,10.611540345760506,0.0,0.0,0.0,0.0,0.0,0.0,0.0,0.0,0.0,0.0,0.0,0.0,0.0,0.0,0.0,1986.790825961373,2023.993396478856,2034.6269930255344,1990.078876713082,1993.9143918108884,2017.8296710416603,2029.5860678962413,1996.2049950053474,27.321165489192797,-2.074666667239452,2.0617680928073683,0.24756934722967705
25,0.26000000000000006,-5.52749241674989,3.161786865582147,0.6881996071420079,0.9367936101249972,0.3345913091452753,0.09835821036087103,0.02814338870911243,0.7289807484454791,-3.247753165946733,1.8987861849013037,-2.3813620758424383,1.5831672195002824,0.2122348037715065,5.501915668048252,-16.513663912888443,11.05256765441398,0.0,0.0,0.0,0.0,0.0,0.0,0.0,0.0,0.0,0.0,0.0,0.0,0.0,0.0,0.0,1982.535987594322,2033.761012996206,2029.0588424772193,2001.4330847848787,1991.236739089616,2025.500363393207,2026.2228227787757,2004.7250817964816,27.315176071115005,-1.8094465394969799,2.2403860213840545,0.24664246584141405
26,0.2700000000000001,-5.5199189989298985,3.1284949346913957,0.7077471754375079,0.9397006303908758,0.3235907326092844,0.10562233788047783,0.03310112918073312,0.78646765422339,-3.4096483879374846,2.0113071941025074,-2.243860622140886,1.8011790638687828,0.20905732356291823,5.957986460885856,-15.923011237754636,11.403726925450108,0.0,0.0,0.0,0.0,0.0,0.0,0.0,0.0,0.0,0.0,0.0,0.0,0.0,0.0,0.0,1977.5483869376676,2039.546230981446,2021.8206659876744,2010.2270163724481,1987.4283186185155,2029.9407242911757,2021.1109469760988,2011.1624832148163,27.266126433859686,-1.5271796442342778,2.383791930757695,0.24352639114827726
27,0.2800000000000001,-5.511747082529614,3.093613764890256,0.7284359890655986,0.942032534835763,0.3132740599035936,0.11387832842763149,0.03828567639412075,0.8487547516671871,-3.565608103873226,2.1269171432629865,-2.0495528162730494,2.00123526403872,0.20579452412872962,6.458277680068014,-15.333886824235421,11.68217041421249,0.0,0.0,0.0,0.0,0.0,0.0,0.0,0.0,0.0,0.0,0.0,0.0,0.0,0.0,0.0,1973.2877618332714,2042.864570827706,2015.0909455947476,2017.0522842993912,1983.9802729421403,2032.4273103674184,2016.1038478755786,2016.1919525229046,27.17348503903178,-1.2515036992247064,2.5077728623334834,0.23929584779442603
28,0.2900000000000001,-5.502926727673764,3.057202665262038,0.750292690039967,0.943728504623474,0.3038688195320537,0.12303583628031886,0.04361688971190603,0.9162099156539939,-3.7156474077533765,2.2447307059975095,-1.8162911826464552,2.1751232822405133,0.20268135674424848,6.990584671984323,-14.749030370690974,11.864693190574815,0.0,0.0,0.0,0.0,0.0,0.0,0.0,0.0,0.0,0.0,0.0,0.0,0.0,0.0,0.0,1969.911545021596,2042.6902013711979,2007.6037785412443,2021.093370860912,1980.6297220979839,2032.1134031028962,2010.0582325752246,2018.624767898067,27.072968643254825,-0.9575915939961441,2.6096111571201686,0.23422686643622118
29,0.3000000000000001,-5.493404862227548,3.019320404150048,0.7733343853742569,0.9447653732235224,0.29551422565024543,0.1329909672448864,0.04902177707329708,0.9890960443658743,-3.859869793296122,2.3637547229260907,-1.5645633895961242,2.3264275918664783,0.19988393595259707,7.545361910068715,-14.178547023536492,11.946386756314986,0.0,0.0,0.0,0.0,0.0,0.0,0.0,0.0,0.0,0.0,0.0,0.0,0.0,0.0,0.0,1966.7560011597154,2039.4112935575736,2000.353100409639,2021.408228882993,1977.100980532481,2029.054927809666,2003.5100353597745,2018.0639968358169,26.949967722084146,-0.6602200177741624,2.6742399516026074,0.23038531822300123
30,0.3100000000000001,-5.483125962546847,2.9800237450638885,0.7975688745452384,0.9451371912585872,0.2883018251920188,0.14364671940613918,0.05443681929203108,1.06765692942551,-3.9985959180233963,2.483166216669227,-1.293819215128613,2.4551674141330744,0.1975468224707544,8.123882486346767,-13.648374997643486,11.95279928534898,0.0,0.0,0.0,0.0,0.0,0.0,0.0,0.0,0.0,0.0,0.0,0.0,0.0,0.0,0.0,1963.4249980201755,2035.8236672165883,1992.767532613829,2021.077076209849,1973.7043257070793,2025.5262573215177,1996.9393750921995,2016.6787280470646,26.80582033019174,-0.37662602714782867,2.7177932274217973,0.2286498310255911
31,0.3200000000000001,-5.472032335124431,2.939365683717882,0.8229960100270097,0.9448463471271659,0.2823104186224319,0.15488897295829995,0.05979643729856904,1.1520634977773896,-4.132219556519757,2.602147365911653,-1.0113975318784194,2.5543379333399625,0.19590634570949964,8.714955959570725,-13.158366867353166,11.875109424074992,0.0,0.0,0.0,0.0,0.0,0.0,0.0,0.0,0.0,0.0,0.0,0.0,0.0,0.0,0.0,1960.3114391003926,2030.331612127369,1984.4645464657578,2019.9160829264433,1969.99244803373,2020.5372890263995,1989.6448592471113,2014.4387821986822,26.645542009369056,-0.11440482040321953,2.7342783233509205,0.22541969365003214
32,0.3300000000000001,-5.46006507306295,2.897395129671676,0.8496073353774672,0.9439109888319699,0.277575217698576,0.1665942267664441,0.06504158123793974,1.2423919045936356,-4.261170604180751,2.71987215161639,-0.728797594451403,2.6283139890785834,0.19523286433810694,9.310101503263501,-12.712894243806616,11.716070565900072,0.0,0.0,0.0,0.0,0.0,0.0,0.0,0.0,0.0,0.0,0.0,0.0,0.0,0.0,0.0,1957.090455839079,2023.145399943906,1976.7243342654378,2016.848226552152,1966.005468741495,2014.0182498761549,1982.3521624068424,2010.8335512594022,26.450417016077896,0.10431991373186902,2.7387859969729638,0.22196548711357253
33,0.34000000000000014,-5.447164869797591,2.854156477770179,0.8773864033346763,0.9423634128063871,0.27408068478082415,0.17864308316141905,0.07012578179639549,1.3386489893597266,-4.385920176139334,2.8355762006664778,-0.4555914680157287,2.675958423259287,0.19548894517381316,9.902924910296873,-12.315378346377415,11.483518969499507,0.0,0.0,0.0,0.0,0.0,0.0,0.0,0.0,0.0,0.0,0.0,0.0,0.0,0.0,0.0,1954.4089935205611,2014.6441772297435,1969.0070058074168,2012.0786924709942,1962.2834817108862,2006.4902885874894,1974.8946964746256,2005.694943024983,26.275786578360748,0.3002158670800521,2.733663302747918,0.21773716367256038
34,0.35000000000000014,-5.433272902736319,2.8096896125434836,0.9063090473867241,0.9402504233280498,0.271751440948072,0.19092532317058222,0.07501877595827877,1.4407197104939906,-4.506877491198526,2.94845737236892,-0.20726870927615904,2.7041848549447205,0.1965346683755724,10.479263803184535,-11.955018439462783,11.16972915608816,0.0,0.0,0.0,0.0,0.0,0.0,0.0,0.0,0.0,0.0,0.0,0.0,0.0,0.0,0.0,1951.4501128865622,2004.0795916229747,1961.748598362834,2004.1033114202498,1958.0003256149164,1997.091217775358,1967.1599671683161,1998.004984071892,26.098415798165956,0.47833925991065585,2.6967943163949912,0.2153780782394238
35,0.36000000000000015,-5.41833141393422,2.764029977449981,0.936344263156937,0.9376228848475764,0.27047617127939344,0.20335396229849156,0.07970654049482084,1.5485493941334316,-4.6245665564968625,3.058030188863137,0.01763416362785251,2.717356105371839,0.19816970692640679,11.053574466209026,-11.651574505345152,10.821073920410207,0.0,0.0,0.0,0.0,0.0,0.0,0.0,0.0,0.0,0.0,0.0,0.0,0.0,0.0,0.0,1948.9064011120863,1994.644426242698,1955.4111317886866,1996.2164734978955,1954.5504880497165,1988.6171547633292,1960.5549326794796,1990.3998590607596,25.920045022580968,0.6250290176739922,2.649995372344103,0.2155441163802487
36,0.37000000000000016,-5.402283202923141,2.7172077755519877,0.9674569107909787,0.9345304917626528,0.27015524276240316,0.21583293070708742,0.08417274378461852,1.6620409921445587,-4.739461726311553,3.163870904226617,0.22158520707314683,2.7073019971780137,0.20034269717885614,11.6137558227154,-11.391049888300309,10.428543268734103,0.0,0.0,0.0,0.0,0.0,0.0,0.0,0.0,0.0,0.0,0.0,0.0,0.0,0.0,0.0,1946.4704498393965,1984.6928411979602,1948.3102745108174,1989.1221372582277,1950.9288547926967,1979.8043791384305,1953.5994502103522,1983.144154629522,25.74160813696908,0.7511264898897461,2.590117087501806,0.2136761969977837
37,0.38000000000000017,-5.3850724584285965,2.6692488742982534,0.9996076090959961,0.9310267959196173,0.270685494883471,0.22826119086971533,0.08840416778682525,1.7810248228227805,-4.8519700036674935,3.265578400158396,0.39964884488682595,2.680760976171669,0.2031015606853267,12.154866823781418,-11.169129751009699,9.998753920205328,0.0,0.0,0.0,0.0,0.0,0.0,0.0,0.0,0.0,0.0,0.0,0.0,0.0,0.0,0.0,1943.808105008819,1974.452810050683,1942.1317406211624,1981.3789005764063,1947.14405116977,1970.6496842186061,1947.0672411829412,1975.7261155343544,25.542692110481205,0.833515199813953,2.523294594571682,0.2111329059387005
38,0.3900000000000002,-5.366645279658321,2.620175306783183,1.032753300220504,0.9271650589737824,0.27195710785027905,0.24055572952696871,0.09239710980113074,1.905290643297146,-4.962450775486409,3.362818613923883,0.5544902073541428,2.6390159590596323,0.20620640091200504,12.673323567866879,-10.981075697825027,9.53839809158774,0.0,0.0,0.0,0.0,0.0,0.0,0.0,0.0,0.0,0.0,0.0,0.0,0.0,0.0,0.0,1941.0035630512327,1964.7320786934793,1935.7172373122528,1973.3605344539005,1943.3913774130192,1961.884526488324,1940.4114743313148,1967.9004449910985,25.38978747511086,0.8798270895442192,2.456584572411024,0.2065546366932554
39,0.4000000000000002,-5.346950324425499,2.570006008438145,1.066847496163188,0.9230024959850675,0.273844806238245,0.2526443956222695,0.0961572870994803,2.0345228346179094,-5.071149326778138,3.455218708758921,0.6765129667591847,2.5859597048733596,0.20938287424293253,13.156014169281693,-10.812390131212268,9.039925891073164,0.0,0.0,0.0,0.0,0.0,0.0,0.0,0.0,0.0,0.0,0.0,0.0,0.0,0.0,0.0,1938.029141138133,1953.8261104128198,1929.5452308207257,1963.4067517532494,1939.1468499417967,1952.159840671349,1933.4763629429665,1958.594481055481,25.244760945045478,0.9068242613779832,2.3643444815826946,0.20337549993030873
40,0.4100000000000002,-5.325938852629932,2.518757155382145,1.101841321440115,0.918601062899741,0.27619656471494797,0.26447367412983036,0.0997056697053699,2.168580952544522,-5.178424214150018,3.5427603837453465,0.7645919369810618,2.526877239427382,0.21230525528269473,13.632854773336867,-10.683967979717934,8.554629381683831,0.0,0.0,0.0,0.0,0.0,0.0,0.0,0.0,0.0,0.0,0.0,0.0,0.0,0.0,0.0,1936.633983440616,1944.9142090338275,1925.4571140509324,1954.2153654589656,1936.792748853805,1944.365387474993,1928.6299068163485,1950.2923088935308,25.083637896525932,0.8849665682752696,2.288155851417657,0.20434864009917902
41,0.4200000000000002,-5.303563372283369,2.466441538256704,1.1376862745664151,0.9140246846653868,0.27887609898554583,0.2759815036895362,0.10305923955767857,2.3072846071738966,-5.284532236998142,3.6254351428555607,0.8255005485524284,2.452187761910533,0.21486470052791065,14.086195966100057,-10.574559557090524,8.064773618102983,0.0,0.0,0.0,0.0,0.0,0.0,0.0,0.0,0.0,0.0,0.0,0.0,0.0,0.0,0.0,1935.498149350605,1936.1153984113926,1920.662419492196,1946.7042289100975,1934.5208177765908,1936.7056027470085,1923.701594169423,1942.975822648165,24.92393756089472,0.8667659981404711,2.21195321707458,0.2027092351728188
42,0.4300000000000002,-5.279779038844446,2.4130702989100516,1.1743330906843399,0.90933870567396,0.28174116876456373,0.2871184506339448,0.10624512926222938,2.4502893039973923,-5.389552020792529,3.703110431176251,0.8489423045351178,2.377464772632535,0.21723276698375343,14.500901368745822,-10.466915491094575,7.560150056244996,0.0,0.0,0.0,0.0,0.0,0.0,0.0,0.0,0.0,0.0,0.0,0.0,0.0,0.0,0.0,1933.1510472157192,1926.4868832372945,1917.5791363446463,1937.1856965556467,1931.123291651615,1928.0262604218094,1919.3737880433018,1934.6641911180452,24.75244474565937,0.83196670578252,2.127134903546663,0.19915816916394102
43,0.4400000000000002,-5.254544531317707,2.35865417480225,1.2117314649186992,0.9045946511449416,0.28466637616811763,0.29787141051977256,0.10929864680879722,2.597270127244217,-5.493513145716332,3.7757490441881325,0.8543799517044596,2.3019702993984543,0.21925688788078876,14.88557573370164,-10.361864143138,7.05696073162132,0.0,0.0,0.0,0.0,0.0,0.0,0.0,0.0,0.0,0.0,0.0,0.0,0.0,0.0,0.0,1929.319577451191,1918.7630365299271,1912.8832674168943,1928.8500664035248,1927.0074282991352,1920.5953960200623,1914.3824789002942,1926.6146903433607,24.638789188224226,0.7503609159212674,2.0565660526387473,0.19226877410915932
44,0.45000000000000023,-5.227821784187624,2.303203835587434,1.249830957776794,0.8998342663376127,0.28757495537128264,0.30822281229346277,0.11223919168349489,2.7478776827904166,-5.596386136979121,3.8433322887174217,0.841684911848364,2.2220203190947347,0.2207136894910628,15.23334227521378,-10.25105463068865,6.551794828168589,0.0,0.0,0.0,0.0,0.0,0.0,0.0,0.0,0.0,0.0,0.0,0.0,0.0,0.0,0.0,1925.2854350140315,1910.625181233201,1907.1071471811783,1920.3846879714358,1922.328550193561,1913.055142213584,1908.2866137656952,1918.4307544312371,24.531779828488098,0.6454345072556209,1.9733057196553832,0.18671932721115433
45,0.46000000000000024,-5.199575202690019,2.246729673552058,1.2885822198372576,0.8951062695922469,0.2903592873517121,0.3181634020279411,0.11510125974664442,2.9020392290644352,-5.698303752048033,3.906169769950124,0.7977189865259783,2.1467202567949926,0.221308042929013,15.585697642215735,-10.159073453451128,6.090953688233203,0.0,0.0,0.0,0.0,0.0,0.0,0.0,0.0,0.0,0.0,0.0,0.0,0.0,0.0,0.0,1924.1394084560745,1904.2836216178775,1904.9999890880063,1911.9283521923333,1920.4733069940842,1907.6378845460824,1905.0912176044235,1911.281325287956,24.391258941774844,0.4910186257079338,1.9230468841825263,0.18510295857503772
46,0.47000000000000025,-5.169769745673409,2.1892410015728645,1.3279392505543697,0.8904675113476666,0.2928903237712643,0.32768216846523995,0.11792907167181237,3.059617041239238,-5.799274811564457,3.964518014450126,0.7266808231275201,2.0673115763728678,0.22101319286191165,15.917201731015851,-10.06001372568921,5.650119538673337,0.0,0.0,0.0,0.0,0.0,0.0,0.0,0.0,0.0,0.0,0.0,0.0,0.0,0.0,0.0,1923.4272999455366,1897.7653425213284,1902.691813264265,1904.73803510421,1918.8704059047698,1902.011163461263,1902.2843097127254,1904.6841072975176,24.247417553542714,0.3706064810368622,1.8816351358027534,0.1801661669301666
47,0.48000000000000026,-5.138373048388021,2.13074826740676,1.3678575377215296,0.8859721131006724,0.29502510938151855,0.3367866269920213,0.12078231460644213,3.220215703259766,-5.8990658350251755,4.018426761643207,0.6179455677329265,2.001944350142797,0.22009011057691535,16.20289881738568,-9.929530109020313,5.21021609622796,0.0,0.0,0.0,0.0,0.0,0.0,0.0,0.0,0.0,0.0,0.0,0.0,0.0,0.0,0.0,1920.6629454343833,1889.9178126707143,1901.7224946486315,1894.6351154710617,1915.3816220983645,1894.714027744405,1899.6292789519039,1896.2266262529497,24.092286058738296,0.2658644513288142,1.8264622518413718,0.17326179545950768
48,0.49000000000000027,-5.10535664106071,2.071264632963284,1.4082933091162333,0.8816445586611823,0.2966664818824037,0.34552298958979094,0.12371634643643502,3.383517000397337,-5.997413761818921,4.068049494919482,0.5050963322138893,1.9472937598385576,0.21846118133901468,16.46262082080696,-9.774294157068653,4.791039605303027,0.0,0.0,0.0,0.0,0.0,0.0,0.0,0.0,0.0,0.0,0.0,0.0,0.0,0.0,0.0,1915.1657457729227,1884.9386366606268,1897.4912352918975,1886.9260437607468,1910.3860088633253,1889.1866793370646,1895.3430298234516,1888.5648730536639,24.006433325403176,0.09796397552925956,1.8006886766732855,0.16175699422542608
49,0.5000000000000002,-5.070694878503275,2.0108058486003384,1.4492046370302445,0.8774879521455264,0.29781703405216214,0.3539165599067988,0.12673979916175193,3.5492411382535476,-6.094051875894789,4.113567904756667,0.3959702626517203,1.8918626627885777,0.21601475975638945,16.6937938014744,-9.592102201489539,4.389229089167834,0.0,0.0,0.0,0.0,0.0,0.0,0.0,0.0,0.0,0.0,0.0,0.0,0.0,0.0,0.0,1909.2242502370439,1879.7622587785395,1890.7308571701044,1880.602028561385,1904.5067167912177,1883.873074313368,1888.9523342082452,1881.8483295095807,23.923544569105697,-0.09490048122100245,1.785756064783101,0.15262327536322856
50,0.5100000000000002,-5.034363416694129,1.949389407123961,1.490552602502132,0.8735178967841551,0.2984270473895801,0.3619917700590822,0.12988356244581523,3.7174934829709723,-6.188945555303305,4.1554722485559035,0.25953660242474064,1.8505983455506982,0.21247006676250296,16.951389539017203,-9.41371820196757,4.048897810948304,0.0,0.0,0.0,0.0,0.0,0.0,0.0,0.0,0.0,0.0,0.0,0.0,0.0,0.0,0.0,1907.8746384876301,1875.7717046897164,1889.8445738498745,1872.7542765826354,1902.6648485852086,1880.6363583344437,1886.6187302017515,1875.7542633714781,23.7909328371912,-0.3204625853907319,1.8212593489831856,0.14801204469475046
51,0.5200000000000002,-4.9963367207922085,1.8870334211648554,1.5323032140481119,0.869759398136404,0.29837419791546294,0.3697904206059312,0.1332158856885798,3.88827012392027,-6.281912550261233,4.194146662709945,0.09811488461170723,1.821165155077687,0.2078878433987557,17.198759747169667,-9.207263394517717,3.738916328037689,0.0,0.0,0.0,0.0,0.0,0.0,0.0,0.0,0.0,0.0,0.0,0.0,0.0,0.0,0.0,1906.5357187436323,1871.5893981324145,1889.674832107157,1865.2746204550278,1900.905566850248,1876.8349528243002,1885.4581019835916,1869.4004490660832,23.642960556119764,-0.5073655769027541,1.8836861809023249,0.14012096975273453
52,0.5300000000000002,-4.956591132125012,1.8237593370995038,1.5744248844863618,0.8662189737274224,0.29752913344543086,0.3773872276957273,0.13682099501887615,4.061204006301698,-6.372472787844488,4.229695200728208,-0.09217478859910105,1.822184975467009,0.20262277072002274,17.400724673170664,-8.943426909874042,3.4324447781637346,0.0,0.0,0.0,0.0,0.0,0.0,0.0,0.0,0.0,0.0,0.0,0.0,0.0,0.0,0.0,1901.7399793430586,1866.110809151656,1889.8015230868757,1854.7793638085298,1896.1031250306044,1871.0868391281656,1883.736691271315,1860.7235439057306,23.484459563715593,-0.6538594842694412,1.9162529900516108,0.1298437376152526
53,0.5400000000000003,-4.915106649264941,1.7595938465865493,1.6168870302260645,0.8628617075443252,0.29581553143214223,0.38489775459105946,0.14077131642480054,4.23601841970387,-6.46011163497836,4.262274680121854,-0.2799747822512186,1.8511649019125753,0.19662702572754112,17.582501684940688,-8.62970845993516,3.1450838094473355,0.0,0.0,0.0,0.0,0.0,0.0,0.0,0.0,0.0,0.0,0.0,0.0,0.0,0.0,0.0,1893.74583457162,1862.9884772592422,1886.355551958625,1846.082845528946,1889.2144884302998,1866.734802283279,1879.9103727351983,1852.375522609554,23.411981139841775,-0.8818667924341017,1.9905708606597077,0.11398722399585554
54,0.5500000000000003,-4.871865292447192,1.6945685812543136,1.6596609365792967,0.8596392458013721,0.2932715772139447,0.3923864137057784,0.14506912633503863,4.41255679681532,-6.544351924291519,4.292078539581098,-0.4489271625931869,1.8806392027284242,0.18976610964253948,17.750120393123403,-8.270037666715524,2.8762781881814803,0.0,0.0,0.0,0.0,0.0,0.0,0.0,0.0,0.0,0.0,0.0,0.0,0.0,0.0,0.0,1885.806017094612,1859.2273896726704,1878.4272087264465,1840.734844230244,1881.731119595496,1862.4283596193677,1872.955098173867,1845.9935784035076,23.36248951520529,-1.0704908429485436,2.0885595119882523,0.09781038446006293
55,0.5600000000000003,-4.82684855257574,1.6287187662151827,1.702721069115783,0.8565281223309665,0.2898717492255172,0.3998903859145663,0.14973851845876837,4.591178792625307,-6.624994501881834,4.319618369765683,-0.6458793449670946,1.9315859808995124,0.18164376224186343,17.973917214297863,-7.898207962663939,2.6711841358713073,0.0,0.0,0.0,0.0,0.0,0.0,0.0,0.0,0.0,0.0,0.0,0.0,0.0,0.0,0.0,1884.2771410006526,1856.3204387106666,1878.4900279804099,1832.7675413976374,1879.7670301433136,1860.2787079603393,1871.2004954563329,1840.2923319978127,23.25735218824012,-1.2198052235090395,2.274939333182914,0.08694748088043924
56,0.5700000000000003,-4.780033833317567,1.5620817573519712,1.7460471650340454,0.8534917322549613,0.28554280421746203,0.40748462069202324,0.1548336327531313,4.77217962771498,-6.701720603994977,4.345322719936287,-0.837774062303382,2.0040117153423473,0.17212047965943497,18.216844211012884,-7.4862102668964425,2.499508734449485,0.0,0.0,0.0,0.0,0.0,0.0,0.0,0.0,0.0,0.0,0.0,0.0,0.0,0.0,0.0,1880.9863989835674,1857.1042018950388,1877.5484118759166,1828.107529208363,1877.5375570688582,1859.9998434456943,1870.1510685698167,1835.9384924012547,23.116181510283106,-1.4482778629848794,2.4797637748227674,0.0740729521987321
57,0.5800000000000003,-4.731398127199968,1.494699604304191,1.7896212561984257,0.8504175359940543,0.2803028595869429,0.41532907152888476,0.16038105787198945,4.955321360508372,-6.7739095960891955,4.3691985012567836,-1.010324368512651,2.1300573425484273,0.1615683281222659,18.421591679585347,-7.0038470109317075,2.3139360537483,0.0,0.0,0.0,0.0,0.0,0.0,0.0,0.0,0.0,0.0,0.0,0.0,0.0,0.0,0.0,1870.9057582551798,1859.3048373548324,1875.896828136239,1821.254074247628,1869.787710584367,1859.5104557626546,1867.48548231121,1830.0691295327233,22.867994224870795,-1.6529550066140413,2.6211062891422308,0.05867914637402447
58,0.5900000000000003,-4.680921576138968,1.426621069647604,1.833424381375391,0.8471910535244144,0.2740963940403538,0.4235966398501085,0.16644630458488843,5.140315626026656,-6.840884436665391,4.391111256439291,-1.2094760917285285,2.291512671200919,0.149930123632659,18.60174865705666,-6.452694934020009,2.1147571502639906,0.0,0.0,0.0,0.0,0.0,0.0,0.0,0.0,0.0,0.0,0.0,0.0,0.0,0.0,0.0,1864.3698230922141,1855.089868021108,1875.6877977674055,1809.6963339067324,1862.7413864025264,1855.6063964707255,1865.1586478541467,1820.6963477284517,22.477316960656502,-1.9272108773322154,2.7917267501514766,0.03628212554695735
59,0.6000000000000003,-4.628588413949432,1.3579024054776754,1.8774353211184436,0.843773919298431,0.26683909185371757,0.43230676714972016,0.17307030723669967,5.326523340836308,-6.901789170173393,4.410694577397797,-1.4100283667058457,2.4420003217654735,0.1369772466177775,18.70069432688659,-5.810087354706006,1.8699057819633325,0.0,0.0,0.0,0.0,0.0,0.0,0.0,0.0,0.0,0.0,0.0,0.0,0.0,0.0,0.0,1855.869190904807,1844.758967367296,1865.7848791732213,1799.4407340740154,1853.3892619583885,1845.6551712606379,1855.9568039528285,1809.3088380680194,22.444843306797488,-2.2092775309500174,2.9594945045999634,0.012569321950232835
60,0.6100000000000003,-4.574391764291354,1.2886090535580035,1.9216279794012001,0.8401523715998909,0.258444908011955,0.44141749542421477,0.18027982901917877,5.51283560830957,-6.9556677912329,4.427368111893712,-1.644755291176981,2.6028377441994173,0.12210841606911081,18.67755131171389,-5.069895449639539,1.5637677813362671,0.0,0.0,0.0,0.0,0.0,0.0,0.0,0.0,0.0,0.0,0.0,0.0,0.0,0.0,0.0,1843.783006377918,1827.6399763559896,1853.2648904463188,1778.8878937710688,1840.0712498372689,1829.1528362829301,1841.482254296281,1790.3340611621074,22.67853789877002,-2.5003852224917495,3.1762716587647026,-0.006408228900706633
61,0.6200000000000003,-4.518325364559996,1.2188123748204744,1.965976799289839,0.8363033446177948,0.24877659425712154,0.45090335051880426,0.18813051432937167,5.700866866075668,-7.0024749903156405,4.442168734786289,-1.8999565671782608,2.766496985585642,0.10499146673621333,18.921767892885022,-4.355215211290897,1.4217757400745157,0.0,0.0,0.0,0.0,0.0,0.0,0.0,0.0,0.0,0.0,0.0,0.0,0.0,0.0,0.0,1844.4642593019062,1824.5078052900597,1853.1213978617445,1773.297438988836,1840.9504107604164,1827.0801481516326,1841.4934925865032,1786.1526522705128,22.675757010128805,-2.840150224153492,3.4653383018212582,-0.02519242674985358
62,0.6300000000000003,-4.460359891779968,1.1485830162434245,2.0104702566367565,0.8321634206201369,0.23772823326167378,0.4607733276676361,0.1966653731651037,5.892974895099975,-7.042149784952174,4.456479179175492,-2.170999565187123,2.9555053654650876,0.08579323236578527,19.38902300234613,-3.618340958309929,1.4063825920711537,0.0,0.0,0.0,0.0,0.0,0.0,0.0,0.0,0.0,0.0,0.0,0.0,0.0,0.0,0.0,1853.049667239659,1833.8307277737647,1865.3933556396444,1778.5945626166797,1850.538684437846,1836.327134702828,1853.21149004478,1793.417523517132,22.55847557112298,-3.15315237240278,3.7168502668576995,-0.046097887901839385
63,0.6400000000000003,-4.400455275415964,1.0779970413198718,2.0551031416876553,0.8276101705489249,0.22514884795097218,0.47111427427234653,0.20596296377545578,6.088416624675581,-7.073563314574142,4.4699016442989095,-2.473236992980424,3.1914812638156262,0.06439637849659631,19.6687832971838,-2.734488648525435,1.2881675783429358,0.0,0.0,0.0,0.0,0.0,0.0,0.0,0.0,0.0,0.0,0.0,0.0,0.0,0.0,0.0,1852.3087424767145,1834.8635479582194,1872.602172133887,1771.9348704882664,1849.7791999280853,1836.3659395636073,1857.6210318621124,1789.1344888445578,22.547883926275443,-3.349965724639936,3.904460549050114,-0.07064717781307658
64,0.6500000000000004,-4.3385855727767675,1.0071436664676376,2.0998625924860783,0.8225193747777452,0.2109161994721942,0.4819647563080917,0.2160699159816438,6.285807542060161,-7.095433277783993,4.481695430978438,-2.7791282503733075,3.433175923382458,0.04053708586934405,19.8258858696585,-1.7297858374316633,1.1054491355197982,0.0,0.0,0.0,0.0,0.0,0.0,0.0,0.0,0.0,0.0,0.0,0.0,0.0,0.0,0.0,1847.4118568628724,1830.3645991099618,1870.0427086843529,1765.8225801074811,1844.5705068477632,1831.5624339031895,1855.2380114079435,1782.4615527439303,22.583258623999626,-3.509861947131411,4.0330152659881175,-0.09747218768172913
65,0.6600000000000004,-4.274732181977888,0.9361232219886821,2.144731814930012,0.8167989905635779,0.19511673204434796,0.49324573333273825,0.22688657174831628,6.485224861738738,-7.106841201617676,4.491887267308992,-3.034205625605075,3.6492639059387293,0.014142200677999059,20.036725527476484,-0.6456063338635687,0.9478023922273593,0.0,0.0,0.0,0.0,0.0,0.0,0.0,0.0,0.0,0.0,0.0,0.0,0.0,0.0,0.0,1844.2645705261218,1832.0626770640597,1863.1665298085184,1772.156597844866,1842.5947868416067,1832.3551262726724,1851.6821311376941,1785.6233196445528,22.43047058482382,-3.663127883933003,4.152300395886917,-0.1217735222118213
66,0.6700000000000004,-4.208873512475495,0.8650444246186094,2.189695237806229,0.8103960470946802,0.1779660525666012,0.5048104250902353,0.23822838980145664,6.686857152324004,-7.1069720198576345,4.5005229213081925,-3.246696824701241,3.825061886520997,-0.01457137481346259,20.250640526692898,0.5173913217246806,0.7859659835753874,0.0,0.0,0.0,0.0,0.0,0.0,0.0,0.0,0.0,0.0,0.0,0.0,0.0,0.0,0.0,1844.8169719695095,1833.926690457234,1856.9116347155036,1781.7687115831147,1843.0925741965889,1834.361478699832,1848.0057881939033,1792.7175225931385,22.760351741821054,-3.826282468163489,4.322197846291738,-0.14573802817819387
67,0.6800000000000004,-4.1409933499929625,0.7940240503990224,2.234734222475846,0.8032845750951096,0.15963227837876076,0.5165065900090571,0.249944733073315,6.889202694171469,-7.095041074139635,4.50684277685413,-3.4324992773011536,3.9759656089067974,-0.04507022085396412,20.254331671229586,1.7525882933906445,0.521192570000828,0.0,0.0,0.0,0.0,0.0,0.0,0.0,0.0,0.0,0.0,0.0,0.0,0.0,0.0,0.0,1838.4326615776602,1827.5539776651988,1846.6257650742493,1781.6921904367784,1836.271818007223,1827.5672690081622,1838.4801850896047,1791.1816760545298,23.607538235093596,-3.9233345935809103,4.435364522576192,-0.1715658042919146
68,0.6900000000000004,-4.071078985725779,0.72318589186275,2.279827890151494,0.7953985805337173,0.1401910511104813,0.5282702331919256,0.2619506212949969,7.094195827107705,-7.070408612678265,4.51166945146994,-3.6078293602384486,4.137367921933736,-0.07706424592852792,20.603023829231404,3.0563961157694663,0.4047335401047292,0.0,0.0,0.0,0.0,0.0,0.0,0.0,0.0,0.0,0.0,0.0,0.0,0.0,0.0,0.0,1848.703370086405,1840.4714329079288,1859.1562618581142,1795.7370669876082,1848.1791117578125,1840.6053837592783,1851.4183937741598,1806.7920684068033,23.99791529219371,-3.9416672667517023,4.519625171268744,-0.2032550269709969
69,0.7000000000000004,-3.999084806292543,0.652662230855437,2.3249689652562933,0.7866718251923404,0.11973853037166453,0.540049005146446,0.2741481275393286,7.305739745087565,-7.031915842983021,4.516530417508009,-3.7464250283728924,4.275657495646636,-0.11038664433133975,21.354793714280618,4.497800878987768,0.4384267697110644,0.0,0.0,0.0,0.0,0.0,0.0,0.0,0.0,0.0,0.0,0.0,0.0,0.0,0.0,0.0,1879.2817002022057,1873.8155195146087,1887.54463463355,1835.0313398938931,1880.227975518229,1874.5121217771316,1883.1104840934368,1844.7293715852252,24.27952637437921,-3.9549615704647505,4.594993652220205,-0.23799616876073612
70,0.7100000000000004,-3.9249495504678786,0.5825969435223127,2.3701544840862665,0.7770839633527147,0.0984896692566266,0.5517567292925395,0.28636482086694304,7.521733812815661,-6.978642444872009,4.520217982254632,-3.8299535164230334,4.389807498343784,-0.1449351131139844,21.662372970246757,5.998627910877019,0.24991839571875119,0.0,0.0,0.0,0.0,0.0,0.0,0.0,0.0,0.0,0.0,0.0,0.0,0.0,0.0,0.0,1892.5194681627695,1892.3892823647232,1896.6763352906191,1859.297021328956,1893.6811951847778,1891.198693588689,1893.97064286582,1865.4421359059427,24.571324104884535,-3.976856258465325,4.642737601007875,-0.26865464139600287
71,0.7200000000000004,-3.8486439740454226,0.5131402261948211,2.415364771773149,0.7666303657030705,0.07665090862462108,0.5633271025912071,0.2984377591310998,7.7394982034011734,-6.91014703735669,4.521311290092929,-3.881999319286376,4.4870560946507725,-0.18054952828930207,21.770534686275766,7.5341934100210395,-0.04985898561482571,0.0,0.0,0.0,0.0,0.0,0.0,0.0,0.0,0.0,0.0,0.0,0.0,0.0,0.0,0.0,1902.4662847181717,1904.7984947588543,1903.242796693962,1875.6125995619198,1903.6063878075524,1903.1114935973521,1901.3144334520814,1880.4508329550497,24.921450643115108,-4.010314272076027,4.702207655457486,-0.2981905109393066
72,0.7300000000000004,-3.7701570096397745,0.44444612081926343,2.460569733444054,0.7553317487204435,0.0543468318414829,0.5746776706338895,0.310267539582402,7.957865699346174,-6.826067456004235,4.519048606642478,-3.9200481157287608,4.561911353846639,-0.2167037409305031,21.790947368665492,9.103947832802106,-0.412996876417715,0.0,0.0,0.0,0.0,0.0,0.0,0.0,0.0,0.0,0.0,0.0,0.0,0.0,0.0,0.0,1914.1646684782058,1914.7053131407233,1911.8825710955668,1890.8755201816157,1914.792317985544,1913.4788556166538,1910.766188433389,1894.9424272754552,25.257581111961997,-3.975884869872463,4.700427847693724,-0.3274794697911858
73,0.7400000000000004,-3.6894857596271926,0.37667240781581973,2.5057331383835697,0.7432095033833988,0.03164165889975409,0.5857314494715045,0.32180290334719447,8.1762671631545,-6.726007773131494,4.512918627809091,-3.955391117130387,4.630984041760192,-0.25303597196874517,21.7643784339856,10.714047343875599,-0.8232839792592372,0.0,0.0,0.0,0.0,0.0,0.0,0.0,0.0,0.0,0.0,0.0,0.0,0.0,0.0,0.0,1927.7479141167908,1926.578994518305,1925.0506330489518,1906.0448012452284,1928.3864421157666,1925.5408706754276,1923.9950284874935,1910.271010146615,25.53442213625178,-3.853529136285582,4.697714460949624,-0.3619081531208986
74,0.7500000000000004,-3.606634050489851,0.30998025723381806,2.5508132855995025,0.7303078303754077,0.008646808922469175,0.5964121547438149,0.3329688382741889,8.393775462217912,-6.609743318107951,4.502283943850863,-3.957630287773248,4.666963575981548,-0.28922417405460915,21.627599027171485,12.334427507991741,-1.3027314603490936,0.0,0.0,0.0,0.0,0.0,0.0,0.0,0.0,0.0,0.0,0.0,0.0,0.0,0.0,0.0,1940.0482661573676,1938.6965495370134,1933.4093779918328,1925.0969311846893,1940.8071288403798,1937.5070491199006,1934.6363207146178,1926.940698658512,25.86134725298492,-3.738088370586478,4.735333741679053,-0.3974817484301525
75,0.7600000000000005,-3.521617515386797,0.24453121892331625,2.595761331360189,0.716701438070866,-0.014412139719832523,0.6066807037326608,0.3436129546659908,8.608998103241719,-6.477443131122782,4.486369267986672,-3.9026506980529683,4.6864164533705175,-0.3250804583842475,21.343080588350105,13.921340538200155,-1.8626784657325146,0.0,0.0,0.0,0.0,0.0,0.0,0.0,0.0,0.0,0.0,0.0,0.0,0.0,0.0,0.0,1947.3384338238354,1952.3585760041126,1937.5345259293344,1942.7689605826197,1949.5402556119948,1949.5884656805276,1940.821081337267,1942.2536287855003,26.212234345682056,-3.681524695031678,4.722599957228817,-0.42747807817361794
76,0.7700000000000005,-3.4344637105725746,0.18048467858263123,2.6405212445282427,0.7024210927633172,-0.03735790435916681,0.6165865031178521,0.35359592700705367,8.821134547304036,-6.329270570538996,4.4645643805182,-3.8208054783100827,4.71564031147163,-0.36048180172732136,21.005068236647162,15.496515733976146,-2.4776638943082574,0.0,0.0,0.0,0.0,0.0,0.0,0.0,0.0,0.0,0.0,0.0,0.0,0.0,0.0,0.0,1956.7276109765821,1967.5409479266714,1947.7796608260014,1957.2586485464549,1959.972194481911,1963.959034474687,1951.003889290872,1956.9229195423527,26.646650345764684,-3.6564860873858107,4.6943422869362745,-0.45590571097905896
77,0.7800000000000005,-3.345206601359208,0.11799845382260152,2.685031125927389,0.6875093674073797,-0.060139742664540974,0.6261197490238876,0.3628886068225503,9.029540313944166,-6.165429253134011,4.436261865562444,-3.7504511817612025,4.724737632539448,-0.39507977451706383,20.598172500090328,17.046233425379143,-3.1537843458560033,0.0,0.0,0.0,0.0,0.0,0.0,0.0,0.0,0.0,0.0,0.0,0.0,0.0,0.0,0.0,1972.0010001781604,1977.7010825249881,1961.1088758440005,1971.2997464231585,1973.7470808812209,1975.688282085819,1964.3096935882852,1971.0695550144073,26.97672510038235,-3.5413041082753027,4.630880686805458,-0.4843408090882178
78,0.7900000000000005,-3.2538857375803847,0.05722878608912581,2.72922334971385,0.672047429670548,-0.0827658218158089,0.6351832979707261,0.371543064787106,9.23382651945481,-5.985965418146216,4.400956673193682,-3.6996628386513466,4.717366011320986,-0.42870687210847336,20.163107576015804,18.599255400484793,-3.874956333548063,0.0,0.0,0.0,0.0,0.0,0.0,0.0,0.0,0.0,0.0,0.0,0.0,0.0,0.0,0.0,1991.175736256634,1989.6350923333948,1978.3176549315763,1987.4723838773548,1991.969761884849,1988.9124620701164,1981.41701692476,1987.5886120980163,27.2346759762566,-3.336486627256914,4.57180306887893,-0.5156678980411876
79,0.8000000000000005,-3.1605478191275442,-0.0016708465208625251,2.7730247695128494,0.6561351713191617,-0.10516378648722192,0.6437139243701576,0.3795518390702584,9.43269422070217,-5.791593625402683,4.357989943700839,-3.6177824741929516,4.684193702213035,-0.4612396825517771,19.563269079345247,20.04709591581122,-4.666982873242631,0.0,0.0,0.0,0.0,0.0,0.0,0.0,0.0,0.0,0.0,0.0,0.0,0.0,0.0,0.0,2003.0728478606998,2001.72741522798,1986.891313960404,2004.6961422539955,2004.3407317628578,2000.2311225763228,1991.8671719028227,2002.527454584168,27.580063363681003,-3.1533450064347823,4.5879464585673855,-0.5455750053794225
80,0.8100000000000005,-3.0652544449174304,-0.05855690898452387,2.8163556191285593,0.6398920261421864,-0.1271374826508383,0.6517429290409672,0.3867885854442397,9.62472012608199,-5.58344681985636,4.306754603633108,-3.479758067291227,4.639880148654435,-0.4925055237755699,18.835005616786304,21.374641494486646,-5.514931134399603,0.0,0.0,0.0,0.0,0.0,0.0,0.0,0.0,0.0,0.0,0.0,0.0,0.0,0.0,0.0,2009.0060118111232,2014.9949958407947,1990.69263409592,2020.3047849255076,2011.8216919906176,2011.7895777514896,1997.4778868077012,2016.003130519205,27.94250294650307,-3.0649236081207962,4.533627746218545,-0.5699183061547496
81,0.8200000000000005,-2.9680767589172774,-0.11329514280320531,2.859131048280106,0.6233579198341889,-0.14856920765810525,0.6593926790192178,0.39313278821753667,9.809548357826593,-5.362094644661941,4.2468416716173945,-3.3221747497334007,4.624955062805547,-0.5223577879674461,18.10729711921688,22.669335748198627,-6.400651769321364,0.0,0.0,0.0,0.0,0.0,0.0,0.0,0.0,0.0,0.0,0.0,0.0,0.0,0.0,0.0,2017.6679388221546,2031.294320174237,2003.4346829709787,2032.8138837001682,2021.9253692955115,2027.0369684626014,2009.3097437190918,2029.6114101067615,28.404454733255676,-3.0295329470535335,4.416044911911336,-0.5918334163194311
82,0.8300000000000005,-2.869087881453426,-0.16575616341330654,2.901262025237369,0.6065587865126509,-0.1694814178259,0.6666854768471318,0.398613801162398,9.986889525982022,-5.12812515726399,4.177789483814952,-3.1963559924769624,4.589927002804343,-0.5506568163592238,17.339502843883636,23.89536772627121,-7.332739475183203,0.0,0.0,0.0,0.0,0.0,0.0,0.0,0.0,0.0,0.0,0.0,0.0,0.0,0.0,0.0,2034.2799862005477,2040.2847704146102,2018.7938872701989,2044.7589458783063,2036.267251801642,2038.36906506421,2024.0576225237578,2042.174618301803,28.698602703729716,-2.9233314504552514,4.306532417508289,-0.6139436979013599
83,0.8400000000000005,-2.7683633547474558,-0.21581557905736284,2.942655130713321,0.5896058436099808,-0.18992263873863346,0.6734753878716653,0.403392169490965,10.156675898090922,-4.881803449179381,4.099217333588556,-3.110592090260658,4.516579953606103,-0.5773727227006537,16.57679774022114,25.11271387199976,-8.296279637173498,0.0,0.0,0.0,0.0,0.0,0.0,0.0,0.0,0.0,0.0,0.0,0.0,0.0,0.0,0.0,2057.0337646998814,2049.6578341362456,2036.772747075653,2060.996487338523,2056.823322784947,2050.349460547698,2042.1558947997482,2058.5625012909627,28.918464172368473,-2.7486213621423476,4.167376903329589,-0.6385572699178022
84,0.8500000000000005,-2.665983175295557,-0.2633556698831084,2.9832136308245034,0.5726191404112206,-0.20987666335937552,0.6796707001625062,0.40756207570437497,10.317791393882338,-4.624572960241944,4.010833256108046,-3.013800174362011,4.427641596307955,-0.6025898126693996,15.662855664796638,26.131743843933464,-9.284208025282403,0.0,0.0,0.0,0.0,0.0,0.0,0.0,0.0,0.0,0.0,0.0,0.0,0.0,0.0,0.0,2068.577169568353,2059.1716096510136,2046.0608295568913,2074.162396102312,2068.7185445616883,2059.015314791814,2052.1322169324085,2070.402004894026,29.276514406277016,-2.552160080346234,4.124738475311836,-0.6597716224194133
85,0.8600000000000005,-2.562039757134416,-0.3082760095302417,3.0228386545613803,0.5557325516530304,-0.229229032435038,0.6852915473846277,0.41108499948951044,10.469207196569188,-4.3581000279491295,3.9125163775410012,-2.8814940433354534,4.315101727716493,-0.6263601507177373,14.669792035974183,26.99563631951829,-10.277439493743934,0.0,0.0,0.0,0.0,0.0,0.0,0.0,0.0,0.0,0.0,0.0,0.0,0.0,0.0,0.0,2075.3631323334034,2068.467044138713,2049.3724187744256,2086.7956630573885,2076.039788812831,2067.5881109031443,2057.089737671145,2081.0668731596697,29.618680971876994,-2.43825512208501,4.013642029062428,-0.6757350500041336
86,0.8700000000000006,-2.4566301650104627,-0.35048721795157195,3.0614305371257156,0.5390104802854724,-0.24789854531806882,0.6904542859144144,0.41386820659966855,10.611107476189984,-4.082752539847614,3.804183565143765,-2.720618080833638,4.236752597915439,-0.6484764838895153,13.732758764843922,27.86819450058786,-11.284041537445777,0.0,0.0,0.0,0.0,0.0,0.0,0.0,0.0,0.0,0.0,0.0,0.0,0.0,0.0,0.0,2083.0656852528787,2085.5789458021113,2061.776360085658,2099.781902359195,2085.9817314808297,2082.9953296784793,2069.0230553657852,2094.8940096367683,30.059394883324625,-2.4499936239531572,3.7560409199700304,-0.6899146456864431
87,0.8800000000000006,-2.349848890815916,-0.38990316098612715,3.098888372631914,0.5224718007267679,-0.26589553515470205,0.6952241299719039,0.4159160864103873,10.743518634442061,-3.7992090333002073,3.6856906462505514,-2.5821499973408844,4.1409297070687865,-0.6687537563956202,12.779276731597733,28.644533931919902,-12.302411657943324,0.0,0.0,0.0,0.0,0.0,0.0,0.0,0.0,0.0,0.0,0.0,0.0,0.0,0.0,0.0,2097.1394522518963,2094.933800724679,2075.410758264431,2111.387225539678,2098.186697523712,2094.2216130089714,2082.1983382422645,2106.849348770871,30.296592110991643,-2.4505364343358154,3.532305109791603,-0.7043739269649616
88,0.8900000000000006,-2.2417902206863247,-0.42644415233536737,3.1351099316024165,0.5062618896972778,-0.2832460600535872,0.6994154366500226,0.4174788802800923,10.866631741407863,-3.5077790714170876,3.556927618169216,-2.5122225740748356,3.9685882859459825,-0.6872374828618943,11.856874100292458,29.418992284901524,-13.324915933553338,0.0,0.0,0.0,0.0,0.0,0.0,0.0,0.0,0.0,0.0,0.0,0.0,0.0,0.0,0.0,2122.989089524203,2098.809132810422,2091.649495120457,2126.802084305925,2119.579069205968,2103.030062176521,2098.6840642280213,2122.2660264995116,30.449822792321207,-2.5751634279247537,3.113976764600908,-0.723135244729788
89,0.9000000000000006,-2.1325495380423165,-0.4600381217022374,3.169993882746133,0.49052290862167064,-0.2999796541811308,0.7028339525150946,0.41883638617808194,10.979769661313934,-3.210165220599375,3.418266498240264,-2.472776486196628,3.775005523390711,-0.7042433142469716,10.83135275857039,29.959944792846915,-14.28922568199642,0.0,0.0,0.0,0.0,0.0,0.0,0.0,0.0,0.0,0.0,0.0,0.0,0.0,0.0,0.0,2136.4212078949727,2102.045787292284,2101.3099278737627,2135.0395321805895,2132.1774082258626,2106.517787006265,2107.6444224928437,2130.4279172147535,30.64369352870018,-2.4705505633491827,2.8232354250693197,-0.7352748388203201
90,0.9100000000000006,-2.022230181155598,-0.4906325895562224,3.2034444468367043,0.4754363148842392,-0.31609209937193505,0.7052575055915454,0.4203069664075634,11.082300843424063,-2.9080943977738665,3.270387981187241,-2.5092158071879274,3.474656053726821,-0.7202045025225646,9.758500243506774,30.357806989076863,-15.17192966893166,0.0,0.0,0.0,0.0,0.0,0.0,0.0,0.0,0.0,0.0,0.0,0.0,0.0,0.0,0.0,2155.145786050181,2094.336324095521,2105.2317606441716,2141.699208675525,2145.551427859723,2104.219051732424,2112.1900779597086,2136.087283710362,30.657276321557973,-2.1408828652441203,2.521655757536748,-0.7402746494484818
91,0.9200000000000006,-1.910938834523154,-0.5181865154276704,3.2353735770155563,0.4611987294839069,-0.33149888333602456,0.7066080971228561,0.42202987968841194,11.17419440290136,-2.6021030425078577,3.114115979774371,-2.4786163583549925,3.1835034936617292,-0.7348880451995994,8.702500049048822,30.73326112593122,-15.97397139137513,0.0,0.0,0.0,0.0,0.0,0.0,0.0,0.0,0.0,0.0,0.0,0.0,0.0,0.0,0.0,2157.2956852293514,2105.289272321181,2106.7803679488607,2153.9077152289674,2151.7125563158916,2111.077330859519,2115.8478027701535,2146.386414580607,30.26725864892402,-1.9282983501490611,2.092773520910886,-0.7444728311573363
92,0.9300000000000006,-1.7987827350030476,-0.5426672798592544,3.265702500339382,0.44800373371750696,-0.3459691892746264,0.7071674817223169,0.42368871526434043,11.255234566371922,-2.2937787182121157,2.9505345576651156,-2.313524942484196,2.8860289446873666,-0.7472875018688693,7.624277364021381,30.899412101362156,-16.658925694507776,0.0,0.0,0.0,0.0,0.0,0.0,0.0,0.0,0.0,0.0,0.0,0.0,0.0,0.0,0.0,2146.1076440597967,2116.8165425982593,2096.5029720890007,2166.7472377426257,2144.317447878889,2118.137226909066,2109.6392566578515,2154.802667539787,29.726466190084256,-1.7288116429290237,1.7586103617527697,-0.748188724187524
93,0.9400000000000006,-1.685872409686364,-0.5640679424998954,3.294365704867996,0.4361432798591701,-0.3592632842709201,0.7070937647025984,0.4251203828649764,11.325000902789444,-1.9866937309588661,2.781263947457593,-2.132176113620582,2.5252158594891916,-0.7568993809045556,6.5040096779362955,30.65511196901083,-17.159246838623687,0.0,0.0,0.0,0.0,0.0,0.0,0.0,0.0,0.0,0.0,0.0,0.0,0.0,0.0,0.0,2134.0948692560833,2101.790075573442,2077.0366204669263,2161.283919343804,2128.9627814838914,2105.2515446831003,2090.7815542586045,2147.3607792558964,30.114887326237213,-1.601074300527429,1.318160458315288,-0.7579238490138868
94,0.9500000000000006,-1.5723196266657093,-0.5824152575055109,3.32131453743296,0.42576149866733254,-0.37132484191402443,0.7064259805889475,0.42638872168364833,11.383843277005202,-1.6833991054545037,2.6078947727783888,-1.9432667021015777,2.1793219257345924,-0.7639557446819909,5.448259491798169,30.216973542547485,-17.512316012401552,0.0,0.0,0.0,0.0,0.0,0.0,0.0,0.0,0.0,0.0,0.0,0.0,0.0,0.0,0.0,2113.803442130984,2083.8840650674915,2057.9922590320602,2143.7096862264198,2109.194940957879,2086.3277536260584,2070.4743372553953,2130.280869266268,30.706764855813592,-1.30323192273419,1.0420375708989256,-0.7610856764248328
95,0.9600000000000006,-1.4582219191511232,-0.5977291261077176,3.3465070713555107,0.4169245128860006,-0.3821643912988814,0.70517177959687,0.42761792506641966,11.434504173997288,-1.3788743039434725,2.429811173208256,-1.784124066606513,1.786802586897788,-0.769257040845448,4.737084952516568,30.54769471234353,-18.006680753032356,0.0,0.0,0.0,0.0,0.0,0.0,0.0,0.0,0.0,0.0,0.0,0.0,0.0,0.0,0.0,2130.8125694994274,2091.632248729523,2069.113852118666,2156.1026890937633,2125.2811637423606,2098.3626689933053,2083.486014763827,2143.8011426002363,31.007428518907158,-0.9000744866285776,0.8078672692281453,-0.7598062271928915
96,0.9700000000000006,-1.3436499469613046,-0.6099748525904245,3.3698936029875397,0.40967258531532635,-0.39177894621950876,0.703433120286595,0.4287883807008451,11.478914968109136,-1.0694776232641157,2.2467264528135926,-1.5609768464513618,1.451308103018938,-0.7729427008623733,4.165553430688362,31.08716753962537,-18.490968469626612,0.0,0.0,0.0,0.0,0.0,0.0,0.0,0.0,0.0,0.0,0.0,0.0,0.0,0.0,0.0,2142.301886692204,2120.6798557397565,2088.201907946854,2177.607556238807,2141.7611104520724,2123.1469447198365,2103.2885149212734,2165.406013505932,31.246371033138075,-0.6070817635926093,0.46519376295081033,-0.7588056916815621
97,0.9800000000000006,-1.2286626612895106,-0.6191068905606527,3.39142847024979,0.4039909910626508,-0.40014349288990514,0.7015228931942911,0.42958362929980837,11.517641351664148,-0.7565187661847155,2.0596906223857525,-1.2581891097618614,1.160521750614381,-0.7749052756364844,3.628071483779749,31.370059167969753,-18.839022816420137,0.0,0.0,0.0,0.0,0.0,0.0,0.0,0.0,0.0,0.0,0.0,0.0,0.0,0.0,0.0,2141.820167725124,2142.3470533421428,2096.387435513666,2191.7084059257563,2144.2228600184662,2140.957994853854,2112.0334245166428,2178.0498417122967,31.331099544874768,-0.3630939082375959,0.20562794506201004,-0.7559416148315106
98,0.9900000000000007,-1.1133132557711416,-0.6250974435019847,3.4110771985643473,0.3999432745525453,-0.40721679363526814,0.6995807998798735,0.42989134041177773,11.551515893248157,-0.441296313583972,1.8696234034293535,-0.9636128046798884,0.8420665008272852,-0.7754095358683503,3.1933582972936136,31.57388368314773,-19.110061861359327,0.0,0.0,0.0,0.0,0.0,0.0,0.0,0.0,0.0,0.0,0.0,0.0,0.0,0.0,0.0,2150.821400576527,2149.7427003605617,2103.730648217166,2201.415376639957,2150.7605054317273,2150.6275019585883,2119.344795879513,2187.4801171386202,31.238185652618114,-0.269615926732761,-0.13289576768813227,-0.7619184249361136
99,1.0000000000000007,-0.9976454334449247,-0.6279296572675894,3.4288141897997853,0.39751268639401965,-0.41304654828944654,0.6976002089318103,0.4298024681179465,11.581478953593807,-0.12506181709364272,1.6775109057823938,-0.6926128778564538,0.5522823546096788,-0.7747524134193553,2.8474619238085808,31.635499724204706,-19.275266573491432,0.0,0.0,0.0,0.0,0.0,0.0,0.0,0.0,0.0,0.0,0.0,0.0,0.0,0.0,0.0,2153.690618424497,2152.783566335338,2110.8709446757853,2201.3138560525563,2153.533846365614,2153.2757750412384,2124.222140666882,2188.8985467023977,31.442819239640304,-0.10314222420387054,-0.25439072257636697,-0.7594505319705414
100,1.0100000000000007,-0.8816941399387257,-0.6276012204461511,3.444624581672178,0.3965955671593975,-0.4177516002582542,0.6954891950866922,0.42952338249372257,11.608337090713675,0.19060192141095164,1.484495108549467,-0.5039627009279328,0.23707168263608297,-0.7738492873254175,2.5741621135626502,31.53667596069118,-19.319523304461406,0.0,0.0,0.0,0.0,0.0,0.0,0.0,0.0,0.0,0.0,0.0,0.0,0.0,0.0,0.0,2158.744342096579,2143.0465060556785,2112.5879708363364,2192.904214388096,2154.84308486348,2146.798854797056,2123.826814945701,2181.759173962486,31.435506034717225,0.12322613824347375,-0.2133439148973169,-0.7507319554414037
101,1.0200000000000007,-0.7654846420935967,-0.6241136058177523,3.458501451908458,0.3969818159376086,-0.42150489878658665,0.6932245319898929,0.4291605834197522,11.633342121074252,0.507156074929836,1.2907821975027476,-0.32353538739981075,0.015164023846059027,-0.772720112256484,2.441523404998591,31.697285137402776,-19.387064126395348,0.0,0.0,0.0,0.0,0.0,0.0,0.0,0.0,0.0,0.0,0.0,0.0,0.0,0.0,0.0,2160.259828705115,2154.51300336557,2126.579889131175,2192.5136063899863,2160.310216523578,2155.1712627279176,2135.6645817284243,2184.3486840778523,31.541155428030724,0.2529490583284344,-0.24248775784828,-0.7439214138649908
102,1.0300000000000007,-0.6490312206332786,-0.617457325566526,3.470440280726618,0.3983134431136924,-0.4245252286608289,0.6910400293529863,0.42847218007381765,11.65719948803898,0.8240792124236486,1.0970215474161469,-0.12251669829653494,-0.0857688471918745,-0.7709689520615151,2.3518514176394945,31.685974195887812,-19.365291374481284,0.0,0.0,0.0,0.0,0.0,0.0,0.0,0.0,0.0,0.0,0.0,0.0,0.0,0.0,0.0,2148.7499596886087,2164.888147677787,2134.7782968813035,2185.9407361156814,2152.6694015515704,2161.0419226213753,2141.122378268312,2179.7515009674084,31.94554652483434,0.30415126070313914,-0.263101420349925,-0.7365332043414217
103,1.0400000000000007,-0.5323417950306302,-0.6076299051525673,3.4804418776385293,0.4003175104947341,-0.4269838371118235,0.6890764091124064,0.4273223561215977,11.680683712268129,1.1415071002362258,0.9033033085803482,0.044367235375161844,-0.1578765679168428,-0.7687335170874341,2.349386178009283,31.75849866899183,-19.36612380044944,0.0,0.0,0.0,0.0,0.0,0.0,0.0,0.0,0.0,0.0,0.0,0.0,0.0,0.0,0.0,2150.856233913261,2168.8445412975248,2144.3784992041988,2184.2337630954657,2153.5664807039193,2166.561125830525,2149.5334954895493,2179.4780735091967,32.0408578945443,0.24987840034570272,-0.43601765244968127,-0.7407383570724756
104,1.0500000000000007,-0.41541497497464175,-0.5946169148330259,3.4885037385212843,0.4028130633873948,-0.4290202685286539,0.6872898802306782,0.42581200744995956,11.70484480421126,1.461577099397763,0.7089508793736683,0.15898474609095292,-0.20634672848826596,-0.7660850245589007,2.454192256356791,32.093504235950256,-19.45179172045053,0.0,0.0,0.0,0.0,0.0,0.0,0.0,0.0,0.0,0.0,0.0,0.0,0.0,0.0,0.0,2166.279322352518,2179.2377918432494,2164.388682927352,2191.805806759818,2168.2821712348277,2178.6645417231634,2168.1349812287617,2189.38436243011,32.27941472048561,0.2567671260744887,-0.4634261846364892,-0.7362411884327648
105,1.0600000000000007,-0.2982420281174149,-0.5783939197204717,3.494620478976918,0.4057277810145616,-0.4307220333919414,0.685500240798958,0.42420857785797084,11.729889091582036,1.7831299649118584,0.5144373485233652,0.1968872123529581,-0.31529961333820317,-0.7637563832291515,2.542299528389691,32.172354460874075,-19.43421868369177,0.0,0.0,0.0,0.0,0.0,0.0,0.0,0.0,0.0,0.0,0.0,0.0,0.0,0.0,0.0,2180.4546971167338,2173.620438207132,2170.0852470416658,2192.497154749601,2177.827493012441,2176.7998416707123,2173.251041944828,2189.599271638627,32.17546968038078,0.3233498348749727,-0.22856418840958503,-0.7235868076525549
106,1.0700000000000007,-0.18081314180935823,-0.5589481462430833,3.498792467973256,0.40899837130321964,-0.4321598143931378,0.6835874937009966,0.4226894433867405,11.756100133562608,2.1063061491178074,0.3199886034853026,0.2226793843823627,-0.3825177215662996,-0.7615173568564094,2.673828386116739,32.36722658638502,-19.42721440111528,0.0,0.0,0.0,0.0,0.0,0.0,0.0,0.0,0.0,0.0,0.0,0.0,0.0,0.0,0.0,2187.5438535953876,2182.010514301728,2181.672113750555,2197.0377105901475,2187.0558586403463,2183.379346584511,2183.758207505896,2195.688916880473,31.994734973533554,0.36957358067191587,-0.006091942368061709,-0.7140347166701743
107,1.0800000000000007,-0.06311706874222586,-0.5362694304219598,3.5010233799120605,0.4123151273538509,-0.4335195791077408,0.681749317838753,0.4210402331272157,11.783255729853753,2.4292801363569687,0.1263588319398778,0.2674642509982784,-0.30735853599653973,-0.75858656795407,2.7562467072730357,32.26438659082342,-19.323699547169003,0.0,0.0,0.0,0.0,0.0,0.0,0.0,0.0,0.0,0.0,0.0,0.0,0.0,0.0,0.0,2172.4766545605366,2189.3541055119144,2187.8858278908347,2186.602485354833,2176.6157928944335,2185.0142037081887,2186.040341694468,2188.1174658188597,31.78935866414431,0.4527297137348395,-0.0035029440643970697,-0.7050815794872289
108,1.0900000000000007,0.054854274451509984,-0.5103687993764882,3.5013233627600546,0.41534247733062135,-0.4349970999757669,0.6802266860261406,0.4189985741687308,11.811136181409333,2.750548284985104,-0.06622113112855947,0.3125413878770362,-0.16797329945007794,-0.7549604674150163,2.825709505437146,32.06557093150275,-19.22958701080487,0.0,0.0,0.0,0.0,0.0,0.0,0.0,0.0,0.0,0.0,0.0,0.0,0.0,0.0,0.0,2160.050579201626,2188.6022246373177,2188.061514505946,2175.564379945987,2164.973423709394,2183.257300953912,2184.8761443592525,2178.0726105798462,31.579194694832,0.48297198620484194,-0.19407339578204927,-0.7104763438084937
109,1.1000000000000008,0.17310780340956597,-0.48126643865308694,3.499701647107121,0.41810774061565537,-0.4365657134103231,0.6790363436432888,0.4165404411619128,11.839698085644896,3.0695666437494595,-0.2580305198417211,0.37564245798313134,-0.09639998638839903,-0.7508031156903829,2.896924999168604,31.82800967204802,-19.165400645032275,0.0,0.0,0.0,0.0,0.0,0.0,0.0,0.0,0.0,0.0,0.0,0.0,0.0,0.0,0.0,2155.1967810448323,2178.68769318236,2176.5122771705082,2174.155984698736,2157.81964001667,2175.5220684142873,2176.5990780425473,2173.237747866262,31.81536477463505,0.3862596830087296,-0.2537898762329017,-0.707435058882776
110,1.1100000000000008,0.2916507598520842,-0.4489861396012396,3.496164752509493,0.42094505616488864,-0.43801736063866903,0.6779785780796523,0.4138732887425397,11.86904913826104,3.3861201141477086,-0.449265076307922,0.4227764217242958,-0.14703685843519282,-0.7471069695511204,2.983816317415844,31.578641840630528,-19.107693846762697,0.0,0.0,0.0,0.0,0.0,0.0,0.0,0.0,0.0,0.0,0.0,0.0,0.0,0.0,0.0,2158.626704777052,2162.484163301256,2160.849920114044,2173.914109351202,2157.0476869033027,2163.5669096093766,2163.694121739617,2170.1523926559357,31.30524906977769,0.3417846670249584,0.0463737663415566,-0.6943323478075932
111,1.1200000000000008,0.4104944333722394,-0.4135413800504684,3.490714981117262,0.4239753430455437,-0.4393110186339837,0.6768358194508015,0.41127121331859245,11.899987765099326,3.7030367364764887,-0.6407657306503844,0.4039207684723513,-0.19682024019910765,-0.7437185745974555,3.169787675220803,31.722811461031508,-19.16153109701957,0.0,0.0,0.0,0.0,0.0,0.0,0.0,0.0,0.0,0.0,0.0,0.0,0.0,0.0,0.0,2172.4496766769407,2163.4964139440235,2172.1089963127442,2177.2026449672117,2170.3919572172767,2166.4651033864006,2172.633623103547,2177.2778875065437,30.419557890688008,0.37657966303088014,0.44582802509445957,-0.6849705744603813
112,1.1300000000000008,0.529652506852437,-0.3749385465974809,3.48335364878963,0.42682297851109097,-0.4407051999497181,0.675708455739124,0.40867977022951363,11.931696889304932,4.016802024769435,-0.8312876459236382,0.37589007211227954,-0.07960545252415743,-0.7397406227991392,3.200922262168504,31.2336816617651,-19.014669898316793,0.0,0.0,0.0,0.0,0.0,0.0,0.0,0.0,0.0,0.0,0.0,0.0,0.0,0.0,0.0,2145.601556282415,2156.107805053357,2168.9851059604052,2149.320291771494,2148.1097605298314,2152.0746696647984,2163.229979998352,2153.4177776558104,30.375746291029092,0.41893065069338975,0.49363923046843017,-0.6754837057097207
113,1.1400000000000008,0.649126257688015,-0.33323345000500115,3.4740971282249613,0.4290035052868898,-0.44248134297783237,0.6749422058321267,0.40573300624247777,11.96296269864837,4.3229439222740575,-1.019722841503301,0.3776506772785267,0.1653668391261947,-0.7350414340523217,3.12401661920525,30.367845954484274,-18.801143757273707,0.0,0.0,0.0,0.0,0.0,0.0,0.0,0.0,0.0,0.0,0.0,0.0,0.0,0.0,0.0,2102.423371539316,2138.0499862050556,2147.7581601839483,2111.4683937518253,2108.5715847634506,2129.1970954377844,2139.5260862232103,2116.665440873846,30.60315643439643,0.4080837686196024,0.4104235281303964,-0.6823789749704867
114,1.1500000000000008,0.7689134033086967,-0.2884896270431172,3.4629588245094545,0.4305245663584689,-0.44460956717170946,0.6746211218275653,0.40231489224903777,11.994605358113997,4.625574111437979,-1.2080839293509527,0.39748563643474544,0.31089297006349653,-0.7297955717872353,3.2039022092895664,30.204964169715076,-18.88120520466807,0.0,0.0,0.0,0.0,0.0,0.0,0.0,0.0,0.0,0.0,0.0,0.0,0.0,0.0,0.0,2102.953147399729,2131.0207350874657,2138.4838429592614,2115.9099539340195,2106.5027866897326,2127.413474389965,2136.1559234648616,2117.7857273737377,30.84924726669835,0.2399109649191108,0.2263285371696862,-0.6811656549206193
115,1.1600000000000008,0.8890228992285268,-0.24071974282545028,3.4499295081384673,0.43174283838460825,-0.44687080883067076,0.674524989041928,0.39864851796615425,12.02752855289677,4.928538083533136,-1.398103238075142,0.40283652187407,0.35209606607313165,-0.7251097103067329,3.349959332753727,30.308559578326566,-19.081936676641043,0.0,0.0,0.0,0.0,0.0,0.0,0.0,0.0,0.0,0.0,0.0,0.0,0.0,0.0,0.0,2120.788205486283,2130.1391865436817,2137.756626615333,2129.457556711407,2121.197210833645,2130.7813818739637,2138.1082209401493,2129.565844335574,30.449291029792448,0.07401493695066708,0.49659294226843625,-0.6697366469408569
116,1.1700000000000008,1.0094691371353706,-0.18991417751613934,3.4349895433717634,0.4329106295744903,-0.449156921323126,0.6743296489050649,0.3951277912733064,12.061952384300904,5.232757751903057,-1.5902188135231325,0.32845910537972683,0.2899593659394039,-0.7209392477503124,3.4973292482103346,30.444337913442254,-19.28939167058563,0.0,0.0,0.0,0.0,0.0,0.0,0.0,0.0,0.0,0.0,0.0,0.0,0.0,0.0,0.0,2143.9271261302356,2124.5655393827747,2144.2757713505534,2139.2669866169813,2139.3213218367036,2130.3265369619226,2144.445015580861,2139.7555008611016,29.82130823063865,0.0943777958691062,1.0390038299669617,-0.662964052715311
117,1.1800000000000008,1.1302624990753272,-0.1360757366514538,3.4181238724016167,0.4337865273715957,-0.451662837476956,0.6739822756498934,0.3918900636950977,12.096696240429138,5.534301165639513,-1.7829631800511339,0.21483523533499027,0.3912666979680869,-0.7165354209006162,3.4754521830109297,30.0261554369472,-19.303175619527433,0.0,0.0,0.0,0.0,0.0,0.0,0.0,0.0,0.0,0.0,0.0,0.0,0.0,0.0,0.0,2124.5631806129154,2117.099713950367,2145.5690425027055,2113.3758109999053,2124.278745432136,2116.2151593162935,2138.1088552019346,2119.573773213173,29.52609304476399,0.1602656584076405,1.0451155080180863,-0.6527239234756503
118,1.1900000000000008,1.2513996250144408,-0.07924973413252856,3.3993318396466283,0.4337661085780135,-0.45472658807804084,0.6739138207459747,0.3884724640840751,12.130556038703604,5.829930814641287,-1.9754661057112022,0.16509679982329936,0.6962823646025794,-0.7117279684488519,3.354585665983123,29.36946971573562,-19.286098968964048,0.0,0.0,0.0,0.0,0.0,0.0,0.0,0.0,0.0,0.0,0.0,0.0,0.0,0.0,0.0,2082.4777627560193,2115.2518881142714,2135.2247451442777,2080.788090970047,2090.2996436029557,2105.6703780938074,2124.394698147185,2089.5959301533494,29.382936812884687,0.20945776888457843,1.0089701025114794,-0.6605632059974631
119,1.2000000000000008,1.3728708139232635,-0.019492363191258813,3.3786113447341504,0.432890127248191,-0.45826402424525164,0.6742977379737988,0.38460730931303255,12.163575485502376,6.120948314470792,-2.1688973569778427,0.16670363011234243,0.849706955429638,-0.7064981529634208,3.2817269201359522,28.974945340396907,-19.429233432690207,0.0,0.0,0.0,0.0,0.0,0.0,0.0,0.0,0.0,0.0,0.0,0.0,0.0,0.0,0.0,2074.5648393504234,2100.42558111102,2112.43858214935,2082.986104682877,2077.5894376137567,2096.5160496985495,2109.717567656344,2084.454284532268,29.713259875784605,0.01085963055374542,0.5988704571242207,-0.6619225798120976
120,1.2100000000000009,1.494669553781058,0.043159477143584306,3.3559472056701463,0.43164512939771416,-0.46195656250985806,0.6749397072248906,0.38044054493768825,12.196118624831824,6.409014612550152,-2.3643177764298873,0.18904031233763574,0.9201526779076932,-0.7018867221354719,3.2444643940703344,28.713593360714995,-19.653762014364418,0.0,0.0,0.0,0.0,0.0,0.0,0.0,0.0,0.0,0.0,0.0,0.0,0.0,0.0,0.0,2075.931534158151,2090.5844043660236,2096.5948003110057,2086.026194379624,2077.306130648432,2088.979322451708,2096.3618018151333,2085.4165198972805,29.24148803896289,-0.2722771596654381,0.6535862652166595,-0.6553288126129355
121,1.2200000000000009,1.6167949141960554,0.10869070304288841,3.3313131334471335,0.4304680589575469,-0.46559299470356813,0.6754186952110195,0.3764704499156995,12.229048326403687,6.697445597116481,-2.5630874771899896,0.10839897694322119,0.7640581029973061,-0.6979273351657509,3.3087968028659986,28.868105696262525,-20.020254573300367,0.0,0.0,0.0,0.0,0.0,0.0,0.0,0.0,0.0,0.0,0.0,0.0,0.0,0.0,0.0,2111.492143504196,2077.6146667674966,2098.6830010921553,2104.563270590191,2103.3683675153798,2087.337652353291,2101.8588623304686,2102.2961207025805,28.476002099723672,-0.2922022894830157,1.1620692819685483,-0.6530452781535238
122,1.2300000000000009,1.7392475213352905,0.17709525359638356,3.304681128220819,0.4293258813350687,-0.46928172343049623,0.675425311652134,0.37316832669666294,12.261262048451528,6.982725860598204,-2.7634674558409107,-0.062227220153188295,0.7187172769173776,-0.6942490043405217,3.173214846263761,28.37801855010902,-20.096661180625475,0.0,0.0,0.0,0.0,0.0,0.0,0.0,0.0,0.0,0.0,0.0,0.0,0.0,0.0,0.0,2099.0382641341807,2058.8445033734847,2096.550379328154,2076.3374982284017,2092.484692465484,2064.1028646789223,2090.9639579422137,2080.315966434707,28.174179182832688,-0.23771886598233843,0.9913578097745464,-0.6380037474538727
123,1.2400000000000009,1.8620123377485691,0.24831964568515386,3.2760451846418324,0.4275570310997787,-0.47339798177887843,0.6753487684224522,0.3701261636187109,12.291310565882702,7.26101100387477,-2.963732683156908,-0.15979840098261888,0.9330383909556568,-0.690759460072889,2.9179856408223515,27.60276911711923,-20.06589270317427,0.0,0.0,0.0,0.0,0.0,0.0,0.0,0.0,0.0,0.0,0.0,0.0,0.0,0.0,0.0,2048.2106259866737,2056.191001988191,2083.7305098728607,2035.0106887651516,2052.8561843192297,2049.09750081334,2073.0336201637742,2043.1525122119572,28.091488820194222,-0.14134947391115316,0.9366916129155562,-0.6434137786566294
124,1.2500000000000009,1.9850671038620202,0.3222992051940616,3.24540297300435,0.42521425128854334,-0.477843560362599,0.6753962550101495,0.36701263062650036,12.319354228762334,7.534305274713208,-3.1649797786690903,-0.19028447812822388,0.9516998677971242,-0.6867258444625066,2.7350982023204296,27.20423852262943,-20.211801708778232,0.0,0.0,0.0,0.0,0.0,0.0,0.0,0.0,0.0,0.0,0.0,0.0,0.0,0.0,0.0,2039.905908192801,2039.1640903002658,2056.560164334046,2041.2435103017974,2038.7066055290784,2039.2685578334717,2056.684050919116,2039.8780333557,28.538981859048157,-0.3760917652120868,0.15552566131216938,-0.6480427078289844
125,1.260000000000001,2.1083946267794076,0.39899785539635013,3.2127385774468507,0.422827174055735,-0.4822716077862795,0.6754411091290121,0.3638826532027161,12.345939628929104,7.805122008083796,-3.3682875746122125,-0.16421682486312938,0.9451936370891036,-0.6829731952370994,2.6050152707721708,27.010064282570134,-20.43963934762294,0.0,0.0,0.0,0.0,0.0,0.0,0.0,0.0,0.0,0.0,0.0,0.0,0.0,0.0,0.0,2036.4184744155352,2037.4014810391607,2042.9901988980687,2046.4424239536245,2036.893541885482,2036.8210757793531,2044.8646610878836,2043.9946405502321,28.048663836259745,-0.7383997929217849,-0.4235814905857176,-0.6483468977110239
126,1.270000000000001,2.231984775881257,0.4784078632354668,3.1780247364042253,0.4209963628770906,-0.48638901349679636,0.6750022371464917,0.36133055481249554,12.372048686917742,8.077301599333795,-3.5750723546385963,-0.2614262472179357,0.5687888496628907,-0.6797280466635368,2.5874653805004755,27.28843649379975,-20.8114620449118,0.0,0.0,0.0,0.0,0.0,0.0,0.0,0.0,0.0,0.0,0.0,0.0,0.0,0.0,0.0,2087.060636303608,2017.723754270389,2040.8792486667512,2077.16418873004,2072.1241358200245,2035.360964459627,2050.3610463476875,2069.2826415085237,27.22024885014789,-0.9185723169723505,-0.45139710638346886,-0.6511216993402982
127,1.280000000000001,2.3558294915514253,0.5605326612168497,3.1412359139308013,0.4201893289671616,-0.4900561685891791,0.6733816863636697,0.36033731963237015,12.396530369972522,8.34703151034997,-3.782596363918671,-0.47787438022081935,0.11152902462013368,-0.6768267384423423,2.358509145389931,26.856557936602243,-20.738936679487452,0.0,0.0,0.0,0.0,0.0,0.0,0.0,0.0,0.0,0.0,0.0,0.0,0.0,0.0,0.0,2091.345167563553,1980.8324205245217,2025.0491119733222,2060.1916123718424,2071.6543642499128,2000.4415625549057,2029.7486096740713,2053.8184082094417,26.99303664522893,-1.2088100930968255,-1.1049254098772243,-0.627523722279113
128,1.290000000000001,2.4799045195045872,0.6453248539077654,3.1023818983084377,0.4200546138844078,-0.4935047436871024,0.6706285664354903,0.36092175771685986,12.417922821244325,8.610380682570447,-3.9877326049780093,-0.6746586841419988,-0.13753468798338983,-0.6743658630431212,2.0080537117799224,26.148954933100654,-20.419862194715588,0.0,0.0,0.0,0.0,0.0,0.0,0.0,0.0,0.0,0.0,0.0,0.0,0.0,0.0,0.0,2048.591707721878,1966.3167085266073,2007.671777690062,2017.4995079402997,2037.8485672302024,1974.6308081114425,2005.4992309268684,2016.515548468963,26.970012569043305,-1.3259373946845854,-1.4683501101651113,-0.6266969334640641
129,1.300000000000001,2.6041782984628865,0.7327296823067949,3.0614880472057773,0.4205332931501507,-0.49676073826027,0.6667345011415522,0.3631055263458909,12.436368141374903,8.870372003905077,-4.190719415924526,-0.9176795158778561,-0.5897084283368295,-0.670098979645199,1.7218648610661802,25.973553553352957,-20.216847567969154,0.0,0.0,0.0,0.0,0.0,0.0,0.0,0.0,0.0,0.0,0.0,0.0,0.0,0.0,0.0,2051.9591521317275,1939.1908062256662,1991.1157174628459,2018.722725868416,2032.7355730481231,1958.9411017597272,1996.4474028545228,2012.5513566295951,27.22642774140801,-1.7626343984909179,-2.900775205179663,-0.6298724377756092
130,1.310000000000001,2.7286226459915155,0.8227331334280167,3.018574048365098,0.4218721595873265,-0.49965774933582835,0.6615399738158464,0.3670570494317054,12.452017295364799,9.130478965550259,-4.391692163598881,-1.101821858276188,-0.9888218655376363,-0.6648307360025284,1.4323046257000982,26.06040602360693,-19.987077056661917,0.0,0.0,0.0,0.0,0.0,0.0,0.0,0.0,0.0,0.0,0.0,0.0,0.0,0.0,0.0,2045.540696531923,1944.318743183613,1985.7005156028604,2020.9801381180948,2031.7159810645217,1959.1232204977375,1991.209973232194,2015.1988360723813,25.590848059879093,-1.8673523465831336,-5.198054680331818,-0.6256437706241608
131,1.320000000000001,2.8532092225465515,0.9153484946733124,2.9736621687529654,0.4247083208188944,-0.5018152646485857,0.6544902300035025,0.37342579078423,12.464808194403073,9.393300324788868,-4.590168263367267,-1.408149115782838,-1.8850819698890358,-0.657839824455561,1.1366891521618072,26.452415103252136,-19.680850826626184,0.0,0.0,0.0,0.0,0.0,0.0,0.0,0.0,0.0,0.0,0.0,0.0,0.0,0.0,0.0,2096.1325751139325,1908.4928176597798,1967.3894698855363,2054.1108809396997,2062.987943967196,1947.7803124655215,1985.5463647398137,2037.610797726666,23.719284884461604,-1.7782542609098755,-6.6881017987244595,-0.625764229567544
132,1.330000000000001,2.9778981059856378,1.0105637028104693,2.926805499100858,0.4308316764805833,-0.5021079593464897,0.6442392392472581,0.383702314712784,12.471988086055214,9.648363267214902,-4.779264379378215,-1.6208789362032119,-3.4339425403389408,-0.647917848583929,0.4866849083846603,25.31398784356398,-18.438434609548082,0.0,0.0,0.0,0.0,0.0,0.0,0.0,0.0,0.0,0.0,0.0,0.0,0.0,0.0,0.0,2082.0262706567096,1799.6616077280476,1843.7458187078926,2053.969578388294,2033.1636208693235,1853.4248817408277,1884.6425988812339,2013.30081527672,22.624085659998716,-2.0773644868938077,-7.48799453902976,-0.5944107805034123
133,1.340000000000001,3.1026260766073688,1.1082690087931302,2.8781271351781754,0.4413264137547074,-0.4995482466290083,0.6301944073179,0.39816774705836355,12.47258774388868,9.89093942630595,-4.953848480170538,-1.701630389888176,-4.926303524193286,-0.6344821289070317,-0.17597293459559182,23.993024946083352,-16.819969856403105,0.0,0.0,0.0,0.0,0.0,0.0,0.0,0.0,0.0,0.0,0.0,0.0,0.0,0.0,0.0,2007.3655553937926,1735.3277395273888,1747.7920288399093,2001.8735170193681,1966.5664543280293,1776.7718791271511,1786.4559449964047,1961.8150613891278,20.227973722681455,-2.027535956263978,-7.3888308761189725,-0.5880208905324215
134,1.350000000000001,3.227331292493272,1.2083546512767154,2.8277809115555694,0.45534682864748743,-0.4942391698976242,0.6125542036491831,0.41613009524822664,12.467615143504801,10.125365409405687,-5.1127682076842715,-1.8918092480749351,-6.09081325991252,-0.61501897318944,-0.7050853044230365,23.34879133056944,-15.20575892858389,0.0,0.0,0.0,0.0,0.0,0.0,0.0,0.0,0.0,0.0,0.0,0.0,0.0,0.0,0.0,1946.5354128743259,1705.6703454998137,1737.358946201707,1930.004560191857,1912.368336447623,1741.4726938263018,1757.6315207219006,1906.8020283005824,17.360253958539754,-2.182321872156435,-8.422890336714598,-0.5803749461384377
135,1.360000000000001,3.351955335434024,1.3107179339453914,2.7759355822845753,0.4711786081937228,-0.4868863432868175,0.5921202383639861,0.4362637175163595,12.456109052479858,10.344662859266963,-5.2532221880068715,-1.9664412736762755,-6.663564653652461,-0.5923260023532079,-1.4021362809675253,21.49167456908785,-13.27887454063692,0.0,0.0,0.0,0.0,0.0,0.0,0.0,0.0,0.0,0.0,0.0,0.0,0.0,0.0,0.0,1798.465387849027,1669.2816814479681,1677.5994407322607,1796.2355421823324,1783.840562288941,1676.2838316561074,1680.8317981273922,1782.4275530832392,20.197816078950282,-2.9398435580289184,-10.0,-0.5259221582260485
136,1.370000000000001,3.476428245709768,1.4151616579730786,2.72278026044486,0.48818637106012336,-0.47757012482704614,0.5691650370264117,0.4578777168748776,12.437363054650266,10.54059850407392,-5.374918686172431,-2.0852385923827184,-7.4853923585419295,-0.5674231082542861,-2.128639853252068,18.991290460537158,-11.435139935794147,0.0,0.0,0.0,0.0,0.0,0.0,0.0,0.0,0.0,0.0,0.0,0.0,0.0,0.0,0.0,1692.226650486237,1523.6509505769532,1533.6799569175007,1682.2200720807887,1659.2762306797206,1549.7578100009875,1549.008576239067,1655.130740026471,21.542672729852043,-3.7418710734224807,-10.0,-0.4644132838420644
137,1.380000000000001,3.6006957528795147,1.52158993374949,2.668482976454118,0.5065398461980749,-0.4658109427170085,0.5423754853542873,0.48194022735752595,12.415830872490849,10.749294554694641,-5.481976610649657,-2.4983822179039286,-8.650238285412282,-0.5328386283536474,-2.2823455970168993,21.698121292933692,-9.95710339810607,0.0,0.0,0.0,0.0,0.0,0.0,0.0,0.0,0.0,0.0,0.0,0.0,0.0,0.0,0.0,1856.9980625359215,1570.4851937687508,1649.7122613207177,1799.4082938638576,1812.4443157368755,1641.6145609820665,1678.7490173132169,1782.785749356893,21.924035632121473,-4.138754799438309,-10.0,-0.3984049110486
138,1.390000000000001,3.724733230526832,1.6302125462430757,2.6132032441185333,0.5250260355015914,-0.4521604916385951,0.5111417991178617,0.5085593505591863,12.39081643594282,10.977545311992301,-5.570466201403643,-3.0792781937981792,-9.24290219184468,-0.4870714920367227,-2.7607577408357287,23.264560764145514,-7.885605164690723,0.0,0.0,0.0,0.0,0.0,0.0,0.0,0.0,0.0,0.0,0.0,0.0,0.0,0.0,0.0,1890.8720810124782,1660.3374024784293,1775.9672104841438,1799.6933163773988,1865.444222097423,1698.6909089276785,1769.8675533741703,1809.9585892099735,24.170148513007284,-3.751672755963544,-10.0,-0.4222309319727745
139,1.400000000000001,3.848489668430884,1.741163989943077,2.5571483605128384,0.5420878980142793,-0.4375663306433978,0.4762373950101907,0.5365392443313356,12.359152004815009,11.21324336160645,-5.63663472817593,-3.5699367125918027,-9.578780737463491,-0.4291859008286163,-3.5370017195699432,23.636807711024943,-5.567598950761088,0.0,0.0,0.0,0.0,0.0,0.0,0.0,0.0,0.0,0.0,0.0,0.0,0.0,0.0,0.0,1873.4867863476738,1715.6325290800962,1816.4069416173309,1797.9057533793687,1857.8048637085005,1737.7971372985226,1808.1430639884181,1805.3215009008616,25.553622581665945,-3.7161329058000483,-10.0,-0.41699700160837655
140,1.410000000000001,3.971888853296035,1.854533427168079,2.500561277784429,0.5575383719144497,-0.4218036298754428,0.43877123400648077,0.5645462477736571,12.319164304144499,11.46313553681819,-5.67596336897337,-3.658248323368621,-9.763716672713388,-0.369986235715795,-4.425629162302158,25.38309913093073,-2.6681218844366583,0.0,0.0,0.0,0.0,0.0,0.0,0.0,0.0,0.0,0.0,0.0,0.0,0.0,0.0,0.0,1915.5857929938097,1866.8037212568775,1871.9933859554778,1898.8381014515792,1921.4006545472575,1873.5389617404974,1880.3223267984476,1895.8496079757806,24.973826143712195,-4.293726421748005,-10.0,-0.3518777365220978
141,1.420000000000001,4.094839582728164,1.970462274122499,2.4437299969681328,0.5715012940483195,-0.4045352629406551,0.3996898021949345,0.5915957690518127,12.269208119451399,11.723423081655111,-5.685240780667161,-3.7003806836114608,-9.865422313790123,-0.3146609646702403,-5.47911366643028,26.05254736137219,0.39241419396329746,0.0,0.0,0.0,0.0,0.0,0.0,0.0,0.0,0.0,0.0,0.0,0.0,0.0,0.0,0.0,1960.9942889618794,1942.1400651679235,1923.1359835298715,1947.4888381571022,1963.6910704529673,1948.0944832807213,1926.1078247049481,1947.0688007423807,24.52413565544814,-4.511873361902589,-9.999999999999623,-0.29694545402193806
142,1.430000000000001,4.217237131034385,2.0889680203469987,2.3869428031182514,0.5835460231536423,-0.3862620819943871,0.35891291217594334,0.617622185764334,12.208468360740031,11.975333016143102,-5.668125873888514,-3.9867644578616335,-9.921703595484328,-0.2571533160400669,-6.575315140652904,24.579705042672373,2.8252437238602823,0.0,0.0,0.0,0.0,0.0,0.0,0.0,0.0,0.0,0.0,0.0,0.0,0.0,0.0,0.0,1959.6194210727729,1904.9833353232143,1931.5070248498255,1903.0039340007072,1948.9850172640888,1916.8719959618202,1919.8758129472046,1910.357661857845,26.149407026542367,-4.429333640543513,-9.999999999999895,-0.21830748068612427
143,1.440000000000001,4.338971799234846,2.209913937128852,2.330444673723119,0.5932948313641047,-0.36742984425441955,0.31627391327828186,0.6426253686304747,12.136575067158637,12.21097039122601,-5.627734774198479,-4.228846971323451,-9.95335827371476,-0.19501503012585117,-7.705268869388604,22.81487648584779,5.07025000370831,0.0,0.0,0.0,0.0,0.0,0.0,0.0,0.0,0.0,0.0,0.0,0.0,0.0,0.0,0.0,1940.3224754355108,1890.803188541908,1915.8508224336692,1882.6476040129348,1934.0479176754304,1898.516195407391,1907.6080554483958,1886.2160575593584,29.059471121165917,-3.6839720535001437,-10.0,-0.22755701217314
144,1.450000000000001,4.459924792062585,2.333168618008521,2.274489865187961,0.6008307083790613,-0.34784619866801453,0.2722172963462493,0.666260628816431,12.051750398215765,12.43880120652579,-5.558053165131313,-4.3211237013200074,-9.97183946723769,-0.12912929507594137,-9.077859403236133,22.287938448581457,8.256611208870446,0.0,0.0,0.0,0.0,0.0,0.0,0.0,0.0,0.0,0.0,0.0,0.0,0.0,0.0,0.0,1982.4760114562876,1962.5832222681256,1964.1323801140238,1954.2163196862546,1985.930706757052,1967.9273613927346,1965.4462051668543,1955.954529697861,32.15498411596926,-3.4045268173527377,-10.0,-0.22374602485335182
145,1.460000000000001,4.579953297961785,2.4586924301924244,2.21941700452714,0.6065718735967002,-0.32680314848157976,0.22776604728902966,0.6880355310638011,11.951301360100585,12.665288531523787,-5.449996563902416,-4.03001546883392,-9.983282560800692,-0.06901877724949029,-10.703794987929172,22.17183513312726,12.34479270058042,0.0,0.0,0.0,0.0,0.0,0.0,0.0,0.0,0.0,0.0,0.0,0.0,0.0,0.0,0.0,2059.449159105942,2105.807522798248,2030.906344827695,2083.414342464764,2078.2998041892174,2101.1030496075964,2047.2213780552738,2075.0543328797253,33.558958492164685,-3.7498308634332145,-9.999999999999998,-0.17695859251692447
146,1.470000000000001,4.698893133623059,2.586465092559554,2.1656394721696177,0.6108571908596011,-0.30382986529845574,0.18372442943514053,0.7076625179819624,11.833950810031649,12.887609089296632,-5.298577826957279,-3.7539780956402455,-9.990464244714131,-0.018980989593437456,-12.392567842473667,21.49892798669306,16.74199680970645,0.0,0.0,0.0,0.0,0.0,0.0,0.0,0.0,0.0,0.0,0.0,0.0,0.0,0.0,0.0,2170.634748590161,2217.6444651722386,2135.704421670717,2186.289974664748,2184.334385739455,2217.408991353173,2147.4108433972,2183.3080699800553,33.83888018159885,-3.7939276563797963,-10.0,-0.14214902032995463
147,1.480000000000001,4.8165839278611005,2.716382914370303,2.1135640059679153,0.6134562691188016,-0.2794981232141403,0.13970311054649656,0.7252828730242065,11.702042735667126,13.09181148818189,-5.111490235155101,-3.759128944378822,-9.995182590684724,0.027222637346686968,-13.731991211269445,19.166190952548234,19.908015531671097,0.0,0.0,0.0,0.0,0.0,0.0,0.0,0.0,0.0,0.0,0.0,0.0,0.0,0.0,0.0,2243.252193798903,2245.1262701719,2209.860777804364,2212.898001306672,2243.6805308622597,2251.6518995019733,2208.6021454746474,2217.421250445347,34.47429881918228,-3.5229562125297837,-9.999999999999982,-0.05690459718365719
148,1.490000000000001,4.9328973040541255,2.848197718082904,2.0634865609855444,0.6141232850826407,-0.254366376157713,0.09528539781986115,0.7409932728183228,11.559011813856866,13.265433889630303,-4.900857787658969,-3.7698468145635804,-9.99851003626761,0.0729144075625775,-14.722494408291098,15.782146736123437,21.852893620219582,0.0,0.0,0.0,0.0,0.0,0.0,0.0,0.0,0.0,0.0,0.0,0.0,0.0,0.0,0.0,2258.3531063291853,2254.24670369359,2223.9706600119193,2219.6403265569907,2259.1666523912077,2256.475759484672,2223.0326667282134,2219.799241993662,34.49599673988935,-2.9937205538945175,-10.0,-0.028543775953773342
149,1.500000000000001,5.047731361809141,2.9815769761472657,2.015611929240306,0.612932380404576,-0.22831893081079105,0.050838649213057835,0.754718354507951,11.406324578124682,13.404423947896104,-4.671216866868265,-3.6499129024148838,-10.001029928320603,0.11990509564354705,-15.63478398771423,12.23581723815137,23.644088918003625,0.0,0.0,0.0,0.0,0.0,0.0,0.0,0.0,0.0,0.0,0.0,0.0,0.0,0.0,0.0,2265.869562603251,2281.114621818346,2238.425971323806,2252.650673944184,2271.756410593923,2278.880852939902,2242.9698101758177,2248.6851842684737,22.962868478031748,-2.437945470261879,-9.884814861712893,-0.015886462018646554
150,1.5100000000000011,5.161001268196096,3.1161582108704944,1.970101394613748,0.610076394922445,-0.20094800908708033,0.00710522687374066,0.7664047271210194,11.246797044400825,13.505261754786149,-4.4294390264468815,-3.343619312164576,-10.002944867174678,0.1632528491981564,-16.16603387095239,8.306319953826247,24.53993423289269,0.0,0.0,0.0,0.0,0.0,0.0,0.0,0.0,0.0,0.0,0.0,0.0,0.0,0.0,0.0,2254.2192824990525,2298.223155218478,2224.587950844153,2267.1370114257265,2264.3151313183084,2290.3219358589013,2233.0830090311647,2257.251053466122,11.887119271685714,-2.267975272304746,-9.999999915063587,-0.010813708117971166
151,1.5200000000000011,5.272754494004508,3.251480917539763,1.9267415361455473,0.605750031871455,-0.17198979820706742,-0.03509908134393184,0.7760505542097341,11.108383003280991,13.550670927088525,-4.256572446594946,-2.9219296437755764,-9.948166958936236,0.19807373075085313,-13.011638644035983,2.5952660428671948,14.735539874842551,0.0,0.0,0.0,0.0,0.0,0.0,0.0,0.0,0.0,0.0,0.0,0.0,0.0,0.0,0.0,1845.2096313484083,1925.634640222281,1811.9870880658937,1875.2083397733813,1839.9213639636703,1893.6683067009733,1801.186248201969,1844.0072624727761,13.227946050889033,-2.3704435921647855,-10.0,-0.010255360472314139
152,1.5300000000000011,5.383294042838004,3.3870262486110043,1.8845938444386932,0.599987882458269,-0.14150552262998273,-0.07574517751847479,0.7837431952184036,11.00456262945585,13.553377422669818,-4.187796502298146,-2.620161235996533,-9.97968403481104,0.22398904249223045,-9.446118721404773,-0.8434005239017495,4.16932951988791,0.0,0.0,0.0,0.0,0.0,0.0,0.0,0.0,0.0,0.0,0.0,0.0,0.0,0.0,0.0,1350.092386693257,1420.0237352021536,1282.4446765011166,1357.3317809794742,1332.8493202454754,1388.4530388645633,1265.245267654285,1320.3712778706015,13.536516038028529,-2.042137925681175,-10.0,0.060951315306973036
153,1.5400000000000011,5.4928652812994,3.5224867190607085,1.8429377826950424,0.5926823706653094,-0.10995135966770904,-0.11541963845546711,0.7895040297988227,10.90970358208044,13.535960696355948,-4.142801476928236,-2.5012381956918492,-9.990913429992352,0.24483661448213634,-9.443848598914784,-2.488736894161292,4.558553231740703,0.0,0.0,0.0,0.0,0.0,0.0,0.0,0.0,0.0,0.0,0.0,0.0,0.0,0.0,0.0,1420.462762193924,1443.2266601192866,1350.4566660294277,1376.1063214621697,1424.4826692508109,1445.2240170484677,1354.086931490518,1375.568578641084,11.887441205192907,-1.4455044689979322,-9.99999957878374,0.09871898175720317
154,1.5500000000000012,5.60149290557309,3.657689786726384,1.8017384408867305,0.5838074310604735,-0.07759092508275331,-0.15415135484838643,0.7933384470588701,10.816219281186562,13.501901691395256,-4.097409786175374,-2.2789743147107577,-9.99759019196153,0.2655510980225227,-9.222701099377062,-4.141494647372568,4.3990554412669525,0.0,0.0,0.0,0.0,0.0,0.0,0.0,0.0,0.0,0.0,0.0,0.0,0.0,0.0,0.0,1420.904900561633,1464.1677165637423,1365.936354205183,1409.5426787999654,1431.53117758394,1456.3235280386377,1376.637689501523,1400.4429369595348,11.521254083673188,-1.0251219704057384,-9.413363736324294,0.04874065282278044
155,1.5600000000000012,5.709215136741949,3.792480913905786,1.7609304659295222,0.5734311510549002,-0.04412202555794741,-0.19126007820767219,0.7953926981966274,10.729565544995216,13.454399992900777,-4.067240982719094,-1.8860371988115527,-10.001071725064552,0.2835975003952476,-8.35749201928948,-5.288887911913065,2.3673833408759393,0.0,0.0,0.0,0.0,0.0,0.0,0.0,0.0,0.0,0.0,0.0,0.0,0.0,0.0,0.0,1311.6791001259446,1401.5638967996272,1258.7847292513143,1349.3899343589437,1326.178982659286,1381.1526956831933,1273.0714431931763,1327.275999861553,13.405494785641396,-1.071139099298266,-9.154484574265775,0.030053231765902216
156,1.5700000000000012,5.816105426716413,3.926739821778665,1.7203516642664867,0.5617585510516482,-0.009965405429924475,-0.22589125329624363,0.7958022133037972,10.649417660430402,13.395522440051732,-4.05011018541941,-1.4870231939139849,-9.720981498230358,0.2917014249707955,-7.777210567025961,-6.393301905795568,1.3283740980680747,0.0,0.0,0.0,0.0,0.0,0.0,0.0,0.0,0.0,0.0,0.0,0.0,0.0,0.0,0.0,1261.0291709771295,1418.0843498876934,1253.190011011317,1291.0034175009903,1293.1896388270604,1389.7310567136446,1253.4076552316349,1287.187328058786,17.388838769144865,-1.1232241226319133,-8.737907558656637,0.008702362992786608
157,1.5800000000000012,5.922206964876696,4.060334539938655,1.6799486488798587,0.5490391456384079,0.023980149356918817,-0.25802653425245603,0.7946088827940028,10.571077776602777,13.320436812571847,-4.0293817369661715,-1.293260177377631,-9.46435226137804,0.29061543940998097,-7.722161672353067,-8.234682816084415,2.1732915987255907,0.0,0.0,0.0,0.0,0.0,0.0,0.0,0.0,0.0,0.0,0.0,0.0,0.0,0.0,0.0,1387.3955208902016,1490.8398372023953,1378.6879855118536,1357.9571545234223,1406.6615896134479,1482.4766487381546,1377.497022685406,1369.273534461574,21.08755054124381,-0.8363433076350414,-8.178620920997503,0.07656521459105368
158,1.5900000000000012,6.027516481494697,4.19305346812704,1.6398418931786867,0.5354558087175896,0.05707539314599734,-0.2882146631509194,0.7918091843068154,10.490519546564757,13.218455493714158,-3.9885816746236076,-1.205870220668921,-9.129637331606704,0.2848162093922409,-8.019905424067275,-11.31279246917316,4.580111703487155,0.0,0.0,0.0,0.0,0.0,0.0,0.0,0.0,0.0,0.0,0.0,0.0,0.0,0.0,0.0,1589.5472090413004,1667.5773897579043,1590.9452192139736,1531.8229794415488,1612.1582544092666,1664.5365929029715,1589.774015425389,1553.597105689019,35.86173335617675,-0.7915050903674018,-8.489816715633031,0.1198602433495291
159,1.6000000000000012,6.1320113162297325,4.324588856513798,1.6002527522602328,0.5212850052513875,0.08886514956954303,-0.3162490584759794,0.7876239340606024,10.408536606872278,13.083215899213016,-3.92661792363529,-1.0259873196385707,-8.690496466758049,0.2805549339019262,-8.072205853414616,-14.745000410746556,6.526260296246811,0.0,0.0,0.0,0.0,0.0,0.0,0.0,0.0,0.0,0.0,0.0,0.0,0.0,0.0,0.0,1727.8420832034208,1835.1048113839186,1763.3545035765774,1709.231967449802,1757.2625981557214,1822.7114132738861,1764.5511338710867,1726.2845173316691,43.83736250396264,-0.9137240571750196,-8.175111600853132,0.4489228112023745
160,1.6100000000000012,6.235638492924227,4.454412729231187,1.5615910611422603,0.5064665139725012,0.11982485353883855,-0.34238046206760187,0.7822463128026322,10.314926134997986,12.865004045638695,-3.7921591806132344,-0.9120446523749943,-8.607907988636597,0.27816734412047195,-9.553834536038863,-25.299409763331226,15.742839909862028,0.0,0.0,0.0,0.0,0.0,0.0,0.0,0.0,0.0,0.0,0.0,0.0,0.0,0.0,0.0,2278.217870204515,2307.70648611233,2267.011159070254,2263.7915937268704,2304.69375208098,2333.085088073049,2297.86580614528,2286.7601644573724,43.29107327589907,-0.9226026410481603,-7.157978498991479,0.3950372988288128
161,1.6200000000000012,6.338298531533733,4.581590555954269,1.5245930844509648,0.4908798681812738,0.15018319507240413,-0.36729662273349734,0.7756127602487898,10.217666632121471,12.558088058493482,-3.6024097206672936,-0.9035027819974248,-8.403672470156044,0.29620866488347436,-9.399225328841965,-33.388198474742836,19.56390649853601,0.0,0.0,0.0,0.0,0.0,0.0,0.0,0.0,0.0,0.0,0.0,0.0,0.0,0.0,0.0,2514.743968956733,2535.5727885032557,2560.9368052033583,2533.0432710664754,2530.8602066370936,2543.871748995962,2569.161117189051,2552.7268200215594,42.70960681808789,-0.984084864317808,-6.118766532637635,0.3574982210103311
162,1.6300000000000012,6.440033786847807,4.705456479697571,1.4895000709684536,0.4750758332060129,0.1787066845475576,-0.3906038542216331,0.7679814468259228,10.131837213487437,12.211436578817974,-3.4203863290080077,-0.9001025570740272,-7.816947945790112,0.31815054039430407,-7.92854355383632,-35.63828952646375,17.07959596734554,0.0,0.0,0.0,0.0,0.0,0.0,0.0,0.0,0.0,0.0,0.0,0.0,0.0,0.0,0.0,2494.2021526737453,2558.643002669579,2577.0725931657234,2502.0962750606677,2509.4164994811936,2544.910136781281,2562.139482188581,2516.2110478580507,42.24444753268182,-0.6894662378160321,-5.156865400628838,0.3693094208906636
163,1.6400000000000012,6.540983706841033,4.825763962492319,1.4560932427968458,0.4598375614279677,0.20423074293744764,-0.41173397456571315,0.7598120523705313,10.060424360409137,11.847598842910642,-3.2654455080703975,-0.9279261145573156,-7.029926010192621,0.3339537705108628,-6.543528399872045,-37.07667745721466,14.339223687793723,0.0,0.0,0.0,0.0,0.0,0.0,0.0,0.0,0.0,0.0,0.0,0.0,0.0,0.0,0.0,2468.7850305371853,2559.331024307371,2572.927973740564,2464.349392980759,2485.6592141656342,2542.560262250009,2553.6793773890417,2482.0233457202903,41.95349157738055,-0.7264425806258341,-4.325238593864239,0.33444914071661147
164,1.6500000000000012,6.641284926520518,4.9423673871558895,1.424104002938854,0.4456307738094189,0.22641767376424712,-0.4302816243804696,0.7516687928613971,10.001805879511172,11.47118884906547,-3.136454280931728,-0.8062898862559644,-6.165937030174631,0.34650139728914736,-5.3377952109237015,-38.17790640676222,11.85208424251094,0.0,0.0,0.0,0.0,0.0,0.0,0.0,0.0,0.0,0.0,0.0,0.0,0.0,0.0,0.0,2438.787673520311,2561.3403225730353,2555.149846289045,2454.1046417422044,2460.883718689382,2539.6943431096634,2540.2074155071673,2467.8664583431755,41.31022904934567,-0.8093069256141971,-3.378128950074869,0.3056051707419169
165,1.6600000000000013,6.741056924672532,5.0551544016240975,1.3932880615898207,0.4327040760254355,0.24533053306925884,-0.44619535781071523,0.7439689609137569,9.954301561740865,11.084674871925232,-3.030250329579952,-0.7651217107645271,-5.319449988151153,0.3538097763090389,-4.301241433150693,-39.0798656713951,9.704115764101573,0.0,0.0,0.0,0.0,0.0,0.0,0.0,0.0,0.0,0.0,0.0,0.0,0.0,0.0,0.0,2437.66851824551,2551.655530635668,2546.4613697841273,2438.266106721182,2455.2687176625413,2534.6531914798234,2529.54330702071,2454.605973175131,41.15706279268219,-0.8160389680406354,-2.9687919082766343,0.3202742344181222
166,1.6700000000000013,6.8404023257207545,5.16404533817925,1.3634272850836875,0.42137608462962645,0.26084282698230155,-0.459856050435629,0.736841657204471,9.916172449430064,10.69286709673589,-2.945196355837516,-0.7788479245592975,-4.423308325249803,0.35644231338155347,-3.450756495078977,-39.40660661948847,7.669825020771626,0.0,0.0,0.0,0.0,0.0,0.0,0.0,0.0,0.0,0.0,0.0,0.0,0.0,0.0,0.0,2422.856847438501,2534.332729645789,2532.077516744977,2409.5638399183513,2439.992038176831,2516.5915639290315,2512.2136774433725,2428.385101141056,41.3965144360676,-0.8557323332301559,-2.7045349288938385,0.3355479605439436
167,1.6800000000000013,6.939404962051399,5.268994826169632,1.334326730060977,0.41162671485300417,0.2733220850793116,-0.4716917276778164,0.7303186971915329,9.88544887464886,10.296167020989111,-2.877513021544499,-0.788728382435322,-3.7626542616868375,0.35806519397939346,-2.7857880279746894,-39.91174275876119,6.0878006555511455,0.0,0.0,0.0,0.0,0.0,0.0,0.0,0.0,0.0,0.0,0.0,0.0,0.0,0.0,0.0,2429.73888902101,2515.930345083903,2514.9838007399753,2418.6348500240697,2441.201650029648,2504.356814055401,2502.912924146622,2430.7208408790657,40.147844865551995,-1.0655824751325536,-0.2425409893306174,0.32684695895628174
168,1.6900000000000013,7.038131088377172,5.369944644515647,1.30583212402109,0.40307777565438846,0.2835823806404244,-0.48224631816899594,0.724256742306392,9.86066881245357,9.892644462846253,-2.823507113594426,-0.8137912171112852,-3.281293261539097,0.3602041612535768,-2.2440230527820404,-40.631624566072944,4.8311346382421405,0.0,0.0,0.0,0.0,0.0,0.0,0.0,0.0,0.0,0.0,0.0,0.0,0.0,0.0,0.0,2448.750713515105,2508.4391558364164,2510.8881280983774,2438.426652245908,2456.5710544598483,2501.458394588421,2502.632841110697,2447.6565710593227,40.23557276017413,-1.1305332092895766,0.5041298780248296,0.311334413450677
169,1.7000000000000013,7.136632516371614,5.4668669935450955,1.2778021612746275,0.396839627562741,0.2901494385126121,-0.4909910829675438,0.7192074594809481,9.840069207273789,9.492739922778986,-2.784751794247923,-0.9264036307050136,-1.842771218726332,0.36061743455577183,-1.9576275517252384,-39.86342272717103,3.347877427553936,0.0,0.0,0.0,0.0,0.0,0.0,0.0,0.0,0.0,0.0,0.0,0.0,0.0,0.0,0.0,2363.5885205967525,2520.297476155876,2531.6799061562774,2339.6815666803236,2395.9929824452224,2487.6309032453723,2493.0462060594195,2379.38151088129,40.59442475748335,-1.1719593617475317,0.8687161664296387,0.3064230789387958
170,1.7100000000000013,7.234936723535603,5.559796290805964,1.2501086271855584,0.3937840120929606,0.29196162681115856,-0.4975497825325744,0.7156373202897826,9.82076193595696,9.092777764726504,-2.7549570069434064,-1.0152802490301187,-0.7809538322791634,0.3585991481024207,-1.9496416064672673,-40.07307843864005,2.7270410247806076,0.0,0.0,0.0,0.0,0.0,0.0,0.0,0.0,0.0,0.0,0.0,0.0,0.0,0.0,0.0,2377.244321626033,2512.454551484747,2519.3277177693476,2354.2790208254146,2396.811541942496,2494.2026824402565,2497.527500292841,2377.908334264468,40.98107487049114,-1.2056220709479994,1.2452805387109003,0.3051499472335655
171,1.7200000000000013,7.333043800198909,5.648709566642836,1.222690934891113,0.39309284507195463,0.29036023129159894,-0.5025759077563878,0.7131524438578111,9.800281072251645,8.68932571926557,-2.728973994730271,-1.0849879233612145,-0.032406947139698244,0.3546954064029861,-2.160948980343136,-40.448356883597825,2.492079450212348,0.0,0.0,0.0,0.0,0.0,0.0,0.0,0.0,0.0,0.0,0.0,0.0,0.0,0.0,0.0,2409.089289402469,2502.8719247285158,2505.656397725958,2390.1389062017065,2420.8002777327383,2492.5415511928454,2492.928215163062,2404.76579434329,41.16205189215174,-1.2843661230816292,1.6624405135221465,0.29666823087332556
172,1.7300000000000013,7.430932025155745,5.733570067524741,1.1955258472476011,0.39414898906664836,0.28628809658533433,-0.5065024478564092,0.7114358512801775,9.776709074222902,8.282301741617465,-2.704079684340148,-1.1396533962592923,0.5512546831570742,0.34974642937885725,-2.5439577247059475,-40.78082384967274,2.4753471974263697,0.0,0.0,0.0,0.0,0.0,0.0,0.0,0.0,0.0,0.0,0.0,0.0,0.0,0.0,0.0,2431.7511927731193,2503.2737484244662,2503.7840540219936,2416.348963653113,2441.5122585572517,2494.7757886255577,2493.469522878652,2428.500383014039,41.401068062188486,-1.2240121295290773,1.8227409044323426,0.3088258524612419
173,1.7400000000000013,7.5285624128902136,5.814350331338961,1.1686103827910264,0.3966643468666686,0.2801717949415851,-0.5095457262259881,0.7102987499136403,9.748468127269119,7.873658852192655,-2.6788640200961376,-1.206678202812868,1.0603722502058603,0.3435893111279188,-3.0758937734081115,-40.862690573087335,2.5637173221202403,0.0,0.0,0.0,0.0,0.0,0.0,0.0,0.0,0.0,0.0,0.0,0.0,0.0,0.0,0.0,2443.7947452556464,2503.240161852115,2504.427325425894,2426.961470974912,2452.120359827343,2495.5063235288367,2493.89198487511,2438.7005689141156,42.43837283744234,-1.2522240181168667,1.8670395253812975,0.3186429424793011
174,1.7500000000000013,7.625881249930318,5.891040070573944,1.1419546861165464,0.4003084769722157,0.2724713615478726,-0.5118408577349088,0.7095994762918207,9.714209686054526,7.464233783249627,-2.651887534113981,-1.2147721657423314,1.4046162626193526,0.33763154524799865,-3.7246413027549607,-40.92659608902238,2.799493740079484,0.0,0.0,0.0,0.0,0.0,0.0,0.0,0.0,0.0,0.0,0.0,0.0,0.0,0.0,0.0,2455.5763781052037,2503.074847866018,2499.0706472033726,2449.6855830574973,2461.8275202892155,2497.3225194400015,2494.268732857317,2455.6747231931927,43.308702691952746,-1.1820434412479988,1.7595871236045364,0.33563003613268116
175,1.7600000000000013,7.722822785284872,5.963612720109095,1.1155896705563138,0.40465244497364844,0.26376640608698715,-0.513582961920836,0.7091658642528024,9.672835309739384,7.049272494178249,-2.620216308334358,-1.2347387985884146,1.612033695897875,0.33255261513561973,-4.479034600160858,-41.65446507638215,3.37335514394832,0.0,0.0,0.0,0.0,0.0,0.0,0.0,0.0,0.0,0.0,0.0,0.0,0.0,0.0,0.0,2493.823599747322,2521.9712663458104,2520.8356213435145,2489.8975448220804,2497.6725195254085,2520.868487836757,2519.129887384105,2494.963337075201,43.91783630221398,-1.1480144199730018,1.6897771569406235,0.34398457084460676
176,1.7700000000000014,7.819311286361646,6.03200318009602,1.0895702142087205,0.40930576699390037,0.25458191014776654,-0.5149966033712903,0.7088267338687807,9.623507418585318,6.628022927413935,-2.582756116342568,-1.2123392804614002,1.6739677130476243,0.32899043611421924,-5.295329019707751,-42.237473766634004,3.9592934031484894,0.0,0.0,0.0,0.0,0.0,0.0,0.0,0.0,0.0,0.0,0.0,0.0,0.0,0.0,0.0,2524.763075177654,2539.4562582520402,2536.192461472978,2529.4176929711057,2526.7358005123756,2539.829012112144,2538.4552122685573,2530.0570917711066,44.4709130138321,-1.0687328097399829,1.5307603937377547,0.35560536620732225
177,1.7800000000000014,7.915265359962371,6.096159408688724,1.0639526673506228,0.41397039967113614,0.24532119757493953,-0.5162002974111518,0.7085077777760495,9.56593343564372,6.2028139431256815,-2.5399338691103734,-1.1861392755990794,1.6783947396794092,0.32675379371760827,-6.123292296816629,-42.55881259173133,4.477414857369411,0.0,0.0,0.0,0.0,0.0,0.0,0.0,0.0,0.0,0.0,0.0,0.0,0.0,0.0,0.0,2545.894557539955,2552.8949816359705,2550.262196128635,2553.3804436991554,2546.8299618071787,2553.642216236244,2552.419110513335,2553.2298070174998,44.962918758180564,-1.0092699280956374,1.3790698620305182,0.36505681794239336
178,1.7900000000000014,8.010602189127361,6.156049704531933,1.038788633707986,0.41845626279198966,0.2362458288921973,-0.5172839104827628,0.7081663790500513,9.500071460147264,5.774946352818236,-2.4920951484330582,-1.1351764751385605,1.6063399340270939,0.32585589099674706,-6.945971786464611,-42.803625962516634,4.968816266658571,0.0,0.0,0.0,0.0,0.0,0.0,0.0,0.0,0.0,0.0,0.0,0.0,0.0,0.0,0.0,2564.111050833003,2564.9856205774618,2561.1806285082725,2576.59754495645,2564.105583070024,2566.5077960364383,2565.3412606798597,2574.22430035979,45.179254542822235,-1.1855260734059678,1.4322049500387615,0.3362278408886729
179,1.8000000000000014,8.105239717094355,6.211650848681868,1.0141266338112183,0.4226033441703256,0.22758112490573568,-0.51831890469587,0.7077844008718834,9.426123390994395,5.345069890335208,-2.4395941614967374,-1.0809816458096928,1.499154261380113,0.326261523088049,-7.739909199711903,-42.9889606206908,5.418510854300784,0.0,0.0,0.0,0.0,0.0,0.0,0.0,0.0,0.0,0.0,0.0,0.0,0.0,0.0,0.0,2579.869452235408,2576.3204236158863,2573.298474226549,2594.3969972315203,2579.2894015054762,2578.3007914203104,2577.664451760188,2591.567133306593,45.212765957446805,-1.2579441066998764,1.5944980337725618,0.32329720311564436
180,1.8100000000000014,8.199099303810312,6.262951053019624,0.9900088835971065,0.42653074608921887,0.21914398738788277,-0.5194462847929601,0.7072644432226922,9.34454070208667,4.9151190027415685,-2.3834304064344902,-1.1332438406285001,1.469747538046925,0.3252576750139634,-8.494451842802064,-42.928638020930165,5.746188914512285,0.0,0.0,0.0,0.0,0.0,0.0,0.0,0.0,0.0,0.0,0.0,0.0,0.0,0.0,0.0,2591.302287640111,2582.0753938883136,2588.849620671682,2588.0691802646875,2589.6892978233604,2584.522185037454,2587.255213532576,2590.1901604138147,45.21276595743293,-1.236111043049566,1.6569583957723164,0.319500417520785
181,1.8200000000000014,8.292105607705382,6.309960004665452,0.966466704608065,0.43052932526863896,0.21051602623135438,-0.5206930262579047,0.7065453100756349,9.255458244981726,4.487094072280795,-2.324605691159612,-1.1908851247573768,1.5283482881300738,0.3226142423299709,-9.25055568567501,-42.682043828511596,5.98848271611363,0.0,0.0,0.0,0.0,0.0,0.0,0.0,0.0,0.0,0.0,0.0,0.0,0.0,0.0,0.0,2588.94058753872,2588.6360406643653,2595.910674904587,2581.725991738889,2589.5256004057255,2588.1665805750054,2592.7832996637653,2585.0177167678053,45.18436608722059,-1.1666351827551118,1.6241587744724288,0.31225805293771813
182,1.8300000000000014,8.384182827522913,6.352702604395524,0.9435244216396361,0.43469479864574495,0.20157858627605865,-0.5219023450531449,0.705708472255583,9.158686189642223,4.061941407989353,-2.2634710211136073,-1.2123144841929145,1.5852336492618626,0.3193746719031197,-10.029216580418776,-42.374407174229134,6.2163543874844684,0.0,0.0,0.0,0.0,0.0,0.0,0.0,0.0,0.0,0.0,0.0,0.0,0.0,0.0,0.0,2586.0065746023947,2591.866884775111,2594.089787907989,2583.506273427899,2587.061255092427,2590.7174512220845,2592.800771306883,2584.912422039836,45.126201971265814,-1.0262210071922022,1.475588402850618,0.30150295332739147
183,1.8400000000000014,8.475253260508731,6.391210252547422,0.9212046432257474,0.4389240238767285,0.19250009045411692,-0.522979094262597,0.7048278395489862,9.054097408878613,3.6401741591224415,-2.200115756696407,-1.193179140601485,1.5998271002337998,0.3157810647536622,-10.810725890012307,-42.02065408934663,6.436421135489034,0.0,0.0,0.0,0.0,0.0,0.0,0.0,0.0,0.0,0.0,0.0,0.0,0.0,0.0,0.0,2585.039227133925,2591.8367387924213,2587.714616668808,2587.80491832654,2585.702895226592,2590.99855189012,2588.517016348443,2587.0248935438003,45.09709042859433,-0.9264120056981162,1.3303970230132882,0.297438876156593
184,1.8500000000000014,8.565239185761918,6.425518946867773,0.8995290499344075,0.4430140022804042,0.1836013606407896,-0.5238861599401624,0.7039690515764875,8.941837538550924,3.2222007168529156,-2.1346587391453786,-1.1191126946165486,1.5383934896427145,0.31180254005169195,-11.561801699620844,-41.63210384980198,6.640604895594926,0.0,0.0,0.0,0.0,0.0,0.0,0.0,0.0,0.0,0.0,0.0,0.0,0.0,0.0,0.0,2584.7459913189878,2589.894898175241,2577.209366767005,2594.009479093976,2584.8410201937654,2589.5477614065935,2580.9698356429517,2590.211662276452,44.98706418537605,-0.8111096335033586,1.1541141660636651,0.2758905799211434
185,1.8600000000000014,8.654065751637228,6.455666585086626,0.8785182958545,0.44679045208257595,0.17516001476139614,-0.5246378448847057,0.7031730888418344,8.822304771320214,2.8079184864185707,-2.067157122488189,-1.0347358089582634,1.4401447183586904,0.30798536710269614,-12.266534755141834,-41.27259685913831,6.840861114038699,0.0,0.0,0.0,0.0,0.0,0.0,0.0,0.0,0.0,0.0,0.0,0.0,0.0,0.0,0.0,2585.629753552593,2587.3389154461574,2572.617518416708,2596.7592362512223,2585.1071416000627,2587.646797731082,2576.789036748846,2592.6750716035413,44.82675073632717,-0.6260957423823251,0.998896714282879,0.24293285252537347
186,1.8700000000000014,8.741663410690851,6.481691066287861,0.8581913485826292,0.45015663431130293,0.16733393049020232,-0.5252823087034264,0.7024506078404503,8.696189941888735,2.397640395727865,-1.9979763083899607,-0.9358365932331008,1.305895910302795,0.30347091176928026,-12.889911850891167,-40.86192483932827,6.990718838656651,0.0,0.0,0.0,0.0,0.0,0.0,0.0,0.0,0.0,0.0,0.0,0.0,0.0,0.0,0.0,2585.201331500068,2584.1556407406924,2565.1394968705677,2595.621582140448,2584.264402159607,2584.748385675987,2570.0707106599343,2590.4922259379473,44.67041405003487,-0.4109786212237867,0.8475167399289321,0.2102579350326175
187,1.8800000000000014,8.827970589474189,6.503634200407356,0.8385626595803284,0.4530467690908278,0.1602673452005016,-0.5257835998444552,0.7018650933144854,8.564361169136308,1.991674561765046,-1.9275680174253735,-0.797297377550552,1.1631301079927798,0.29720246190669514,-13.420878365753452,-40.42962356252588,7.099821136335782,0.0,0.0,0.0,0.0,0.0,0.0,0.0,0.0,0.0,0.0,0.0,0.0,0.0,0.0,0.0,2580.8883400846194,2583.436976124886,2555.1436106587253,2592.4642753707208,2580.9296681999085,2582.9127144127824,2561.021567429857,2586.258713669886,44.534108924196055,-0.185279539462795,0.6807738409116383,0.18126627136079154
188,1.8900000000000015,8.912934695040896,6.521538735660597,0.8196432633844558,0.4554325511727108,0.15407453884161104,-0.526031847993948,0.7015217193424115,8.427731804633247,1.5898706513722207,-1.856132884842122,-0.6244790314640057,1.0166618539557122,0.28904468167548203,-13.858193040142908,-40.02687809528771,7.199073805297163,0.0,0.0,0.0,0.0,0.0,0.0,0.0,0.0,0.0,0.0,0.0,0.0,0.0,0.0,0.0,2576.156014210445,2582.9637008783966,2545.9232470599322,2588.817466053974,2576.8473288046666,2581.7183677134126,2552.550635645776,2581.971058409016,44.41970641384837,-0.07838982240736286,0.4667067770482902,0.17408906039483313
189,1.9000000000000015,8.996512458695872,6.535444276186862,0.8014433340253668,0.45729198724753234,0.14885245338655909,-0.5259474179904917,0.7015028859734933,8.287258533316583,1.1917965911061466,-1.7836658496208055,-0.4279686736165549,0.8608551399041591,0.2793603856346642,-14.196870222267677,-39.67334143406509,7.304082514323129,0.0,0.0,0.0,0.0,0.0,0.0,0.0,0.0,0.0,0.0,0.0,0.0,0.0,0.0,0.0,2572.6355064024524,2581.598776890577,2538.0902743922884,2585.6410965113414,2573.4773929491894,2580.1692576956034,2545.421013042726,2578.2651308704144,44.34135578557688,-0.05643761614143977,0.2638210627132508,0.17904261106049912
190,1.9100000000000015,9.078670432496677,6.545385488559189,0.7839735447727106,0.45859669040840734,0.1446510504105966,-0.5256112379292402,0.7017820001425358,8.14393753392402,0.7969136584139089,-1.710104848937217,-0.2732872702901304,0.6777769920997689,0.2696518354276643,-14.43752261096698,-39.376965682340284,7.411180292445696,0.0,0.0,0.0,0.0,0.0,0.0,0.0,0.0,0.0,0.0,0.0,0.0,0.0,0.0,0.0,2573.4703915413065,2573.889427418157,2535.859034912588,2581.4476216803114,2572.191056105406,2574.4864623582066,2542.5572481289805,2574.8977353912355,44.347156757470344,-0.10289859460965392,0.1376473104769052,0.19375532712067145
191,1.9200000000000015,9.159384697720023,6.5513909776674675,0.7672447465625022,0.45934323405368316,0.14141556817653445,-0.5252529123698884,0.7022213386485501,7.998650023631403,0.4045357574308448,-1.6354892666430114,-0.1780049673445901,0.48651467720736,0.2611258192889102,-14.59835308721491,-39.15414477304241,7.507982389488133,0.0,0.0,0.0,0.0,0.0,0.0,0.0,0.0,0.0,0.0,0.0,0.0,0.0,0.0,0.0,2575.128016397081,2565.591909212171,2538.1183757643225,2576.6349167346884,2572.392277554842,2567.717035718067,2543.491090484695,2571.5102624534966,44.35697011137419,-0.17672935579256346,0.008392534895520803,0.21534997100142583
192,1.9300000000000015,9.238638770398904,6.553480949418097,0.751267231759285,0.4596065832572804,0.1389594584270705,-0.5250687444983944,0.7026769322320918,7.851970916546683,0.013640061895493966,-1.559861953068244,-0.14610473939609703,0.3266874847017842,0.25451186097751993,-14.717218197594306,-39.04263405932358,7.600997388817143,0.0,0.0,0.0,0.0,0.0,0.0,0.0,0.0,0.0,0.0,0.0,0.0,0.0,0.0,0.0,2576.4254189200756,2561.1244083366014,2546.102931806879,2572.1062727282697,2573.3961350364257,2563.7964905107906,2549.299285879295,2569.3340597147203,44.37837925858493,-0.24728613441849512,-0.1087981824751983,0.23904170813235948
193,1.9400000000000015,9.3164208906305,6.5516666346875585,0.7360499339092682,0.45948028277403213,0.1370706453380933,-0.525204441518135,0.7030290196984176,7.704320884978068,-0.376389596003734,-1.4835161332936975,-0.1609804336977808,0.18003008663496556,0.2502786804044585,-14.798622851443177,-38.9734239127103,7.6529677181476075,0.0,0.0,0.0,0.0,0.0,0.0,0.0,0.0,0.0,0.0,0.0,0.0,0.0,0.0,0.0,2577.140758369884,2556.952749025915,2552.902202148625,2569.8850703731655,2573.5294071166427,2560.290319254538,2555.0641043006935,2568.1025357800495,44.40225367487681,-0.37223402904086117,-0.2322482205962521,0.2711498475620283
194,1.9500000000000015,9.39272286172405,6.545954564661662,0.7215978798503729,0.4590163177905859,0.13561439996131713,-0.5257558168284205,0.7032023717225249,7.555975494040991,-0.7659785704651816,-1.406890187097215,-0.20015689971011869,0.04699900497942493,0.2485244598010946,-14.85912182783089,-38.94620127604098,7.659496352896866,0.0,0.0,0.0,0.0,0.0,0.0,0.0,0.0,0.0,0.0,0.0,0.0,0.0,0.0,0.0,2576.7795427437422,2554.5462317441256,2558.2342792681047,2569.743282337781,2573.1754549685356,2557.9997108742136,2559.84121429736,2568.4541058654036,44.46567717459,-0.49242734908063274,-0.3301099964745536,0.2972069079256575
195,1.9600000000000015,9.467538625792876,6.536347316789813,0.707911424175345,0.4582487314170435,0.1344825853931327,-0.5268137065388968,0.7031286176677766,7.407096593027266,-1.1554788496500479,-1.3304885231980992,-0.2782926802410366,-0.08202998128692687,0.24962778204760874,-14.908640899794712,-38.951460198087815,7.611413274477119,0.0,0.0,0.0,0.0,0.0,0.0,0.0,0.0,0.0,0.0,0.0,0.0,0.0,0.0,0.0,2577.3978566198034,2550.4832493417216,2564.342286502503,2569.802306601183,2572.954559481039,2554.8659417714516,2565.0150665414053,2569.3884433797516,44.60141077993493,-0.5383994700057539,-0.3388691520346096,0.3071358880205869
