,t,px,py,pz,qw,qx,qy,qz,vx,vy,vz,omex,omey,omez,accx,accy,accz,taux,tauy,tauz,jerkx,jerky,jerkz,snapx,snapy,snapz,bomex,bomey,bomez,baccx,baccy,baccz,mot1,mot2,mot3,mot4,motdex1,motdex2,motdex3,motdex4,f1,f2,f3,f4
1,0.02,-6.146661336911623,3.1919519868430304,0.500962795645142,1.0,1.2165270103623684e-27,5.303110032292305e-28,3.800941958135414e-28,-2.1851666805634493e-25,-3.4218856970945055e-26,-0.09763553801602431,-4.141282798647678e-26,2.3232383638905356e-26,-9.193392323964714e-27,8.129637718596484e-27,4.2069691220487835e-27,-9.724914429119337,0.0,0.0,0.0,0.0,0.0,0.0,0.0,0.0,0.0,0.0,0.0,0.0,0.0,0.0,0.0,0.0,0.0,0.0,0.0,0.0,0.0,0.0,0.0,13.842001070297597,9.999999999999998,7.189738155853425,0.35377315845220053
2,0.03,-6.146660962885242,3.191951240029652,0.49990095802209733,0.9999853834572265,0.004751520902091773,0.0025712952479885367,-0.0002106223359850964,0.00021609712806991622,-0.00041905679228527553,-0.07928259171793683,2.6491444677746263,1.5804117657196297,-0.12018487742252104,0.08326109583824937,-0.15594579180220275,9.115900004698862,0.0,0.0,0.0,0.0,0.0,0.0,0.0,0.0,0.0,0.0,0.0,0.0,0.0,0.0,0.0,0.0,2599.3606640830967,1100.1215399387952,1581.1759441104011,0.0,2599.838662951861,1302.693760073261,1572.7437555001827,13.842001070297597,9.999999999999998,7.189738155853425,0.35377315845220053
3,0.04,-6.1466477448612356,3.191928452440711,0.4995125388645463,0.9995060374338054,0.02641327581585538,0.016998267697816403,-0.0010386959717033491,0.0031304012192813137,-0.005179743090238079,-0.005491123075036067,5.755264498856082,3.986524075187779,-0.18033245115995677,0.49187725819814204,-0.7687640608824318,5.557733760450747,0.0,0.0,0.0,0.0,0.0,0.0,0.0,0.0,0.0,0.0,0.0,0.0,0.0,0.0,0.0,0.0,2050.0959145530824,1317.8649872544868,1570.3250068145965,0.0,1926.058650491914,1343.2956949809002,1558.7082510117282,13.842001070297597,9.999999999999998,7.189738155853425,0.35377315845220053
4,0.05,-6.146581641805146,3.19182373783777,0.49968635018302676,0.9973363718389237,0.060364248436856456,0.04090849418414309,-0.0016775045191123766,0.011086207270197917,-0.01717106929247135,0.03759943511546567,7.66239062559628,5.462593906912177,-0.08592490973539182,1.081662825860927,-1.6032749721704171,3.8002910851697576,0.0,0.0,0.0,0.0,0.0,0.0,0.0,0.0,0.0,0.0,0.0,0.0,0.0,0.0,0.0,712.8355297815758,1703.6784631377982,1372.6227274130774,1517.7253661665673,894.6261142447697,1633.2596714960514,1380.71741787945,1503.7742365136141,13.842001070297597,9.999999999999998,7.189738155853425,0.35377315845220053
5,0.060000000000000005,-6.146402084285692,3.1915512897551324,0.5002479034984658,0.9923710015358312,0.10135991984365372,0.07016484446770647,-0.0016901363500724433,0.02614748934080837,-0.03917590278532744,0.07428840778418692,8.69781015910869,6.247982244391575,0.04289841745346901,1.8679103956491978,-2.7081488803991705,3.541548880176673,0.0,0.0,0.0,0.0,0.0,0.0,0.0,0.0,0.0,0.0,0.0,0.0,0.0,0.0,0.0,1050.6622784776464,1556.7408617786155,1387.375545796859,1473.705910980025,1113.5985579653216,1525.361192057571,1388.48016907523,1463.183135089032,17.71863181705696,3.6573999399505013,3.3820855301200425,0.3201846067752903
6,0.07,-6.1460312011342415,3.191001753452313,0.5011598685358195,0.9840022943677883,0.14599937117175435,0.10209128856607257,-0.0010183787605904352,0.04943498479467115,-0.07269117320574767,0.10730639558377963,9.271438416066896,6.682980283769478,0.17640519962050316,2.7094241551013085,-3.8816727304870344,3.0736264006972074,0.0,0.0,0.0,0.0,0.0,0.0,0.0,0.0,0.0,0.0,0.0,0.0,0.0,0.0,0.0,1207.4458808523466,1476.5013211117675,1384.5609673481292,1441.3668863708363,1239.9142272621598,1460.391764276554,1382.4517946177436,1433.2851149321823,22.999573215920343,4.9634395229622905,4.291284107700557,0.20750267236851389
7,0.08,-6.14535660571954,3.190017797748878,0.5024923412472538,0.9736415407910732,0.18624546868109015,0.13166113665143472,0.00034718496265356895,0.08826051320252717,-0.12792577152165419,0.1631921501248305,6.846898501014892,5.265711182861322,0.2572458852689066,4.385106536777205,-6.198494671499035,5.694142297748561,0.0,0.0,0.0,0.0,0.0,0.0,0.0,0.0,0.0,0.0,0.0,0.0,0.0,0.0,0.0,2004.8181150681326,839.2829973954122,1692.4805402118004,1421.1142360232386,1809.4544742901214,1248.3571250987643,1650.9902435439042,1488.5469138880771,25.441391241181798,4.786985353041892,4.301842669344112,0.24665203618703896
8,0.09,-6.144203945862894,3.1883594635107366,0.5045089784059831,0.9636316443096026,0.21721364029387763,0.15565089665829554,0.0022554212294431364,0.14609859844730766,-0.20886385824336137,0.2461447223580458,6.035385215497352,4.856507976500771,0.32207625932002804,6.658765510417303,-9.24807932802879,9.34564911126967,0.0,0.0,0.0,0.0,0.0,0.0,0.0,0.0,0.0,0.0,0.0,0.0,0.0,0.0,0.0,1910.155475912941,1625.9532005577723,1802.073232471018,1717.377535222893,1940.5007855601295,1631.8814033409212,1807.8196763639685,1729.2701338736777,26.37163989587919,3.9818837511058214,3.8386046515037333,0.3279324885704116
9,0.09999999999999999,-6.142368009716591,3.185753921305846,0.5074845829590845,0.9530925787152291,0.24482201247827487,0.17792064901293522,0.0045783467385423805,0.22387482997719413,-0.31573390506568766,0.35042512090466293,5.458470373354644,4.6022274952251205,0.3628701825242303,8.429105643691981,-11.48466691856964,10.536586807461612,0.0,0.0,0.0,0.0,0.0,0.0,0.0,0.0,0.0,0.0,0.0,0.0,0.0,0.0,0.0,1950.6733422049224,1803.015845619283,1885.516368096295,1828.85353549435,1943.551918305661,1823.9730771323632,1881.2922044190532,1841.3598261079944,27.35104183459831,2.961604864193637,3.169251379350733,0.40779936725454996
10,0.10999999999999999,-6.139680269778519,3.1819896233354075,0.5115173549944753,0.9423543755281674,0.2692674687470783,0.19852097204113953,0.00725843352935091,0.31567093633208365,-0.4393976697079598,0.45539819250494057,4.782650690951467,4.249744969791863,0.39786173241802075,9.6696673489286,-12.909024225767673,10.199040313115914,0.0,0.0,0.0,0.0,0.0,0.0,0.0,0.0,0.0,0.0,0.0,0.0,0.0,0.0,0.0,1999.0948989519754,1818.0547115669265,1929.2843323717218,1868.021249047234,1973.1457070960687,1852.5807120727045,1920.8618314028076,1879.4196712185646,28.476299165852005,1.774294306180963,2.3387389131495047,0.47909683301132305
11,0.11999999999999998,-6.136014000877632,3.176920919293692,0.5165802415600901,0.9320990222522831,0.2899433083489023,0.21683881181089906,0.010257697230312229,0.4194550005049868,-0.5763334768922924,0.5564084286254984,3.953984800972695,3.7500553031199013,0.4281637496512495,10.829567124591488,-14.155681876024783,9.80465506247985,0.0,0.0,0.0,0.0,0.0,0.0,0.0,0.0,0.0,0.0,0.0,0.0,0.0,0.0,0.0,2053.1559121231076,1821.2419343656131,1971.6359400608044,1905.723234363883,2019.0995230974138,1865.6758179935196,1963.2631954112546,1917.1958727692363,29.29541107610009,1.1282747616796827,1.697939017570193,0.48219741853293374
12,0.12999999999999998,-6.131251797580857,3.170421719477813,0.5226366616520991,0.9231080305615518,0.3062173028611715,0.23220594066733444,0.013525104805555908,0.5347848539963516,-0.7253024263237936,0.6543834090838149,2.9649415055403248,3.09532258133853,0.4529215428855674,11.951860249963753,-15.292344700856608,9.573131864195505,0.0,0.0,0.0,0.0,0.0,0.0,0.0,0.0,0.0,0.0,0.0,0.0,0.0,0.0,0.0,2111.2253006872897,1829.0734867315462,2017.6459811394689,1947.1358462769597,2070.655681252834,1882.7265048121787,2009.5518030918531,1959.0049708380197,29.15070766831001,0.2762333632664441,0.8536351039841139,0.4996898351898249
13,0.13999999999999999,-6.125284931803084,3.1623831198882906,0.5296586482671612,0.9158296574004676,0.3182052375779408,0.244365567126246,0.01693915602314943,0.6599970935457219,-0.8836589214648419,0.7494286380160966,2.1407913635868616,2.4524281091376423,0.46857890563657195,12.846355102078766,-16.10096874048017,9.284138427162913,0.0,0.0,0.0,0.0,0.0,0.0,0.0,0.0,0.0,0.0,0.0,0.0,0.0,0.0,0.0,2129.099248179131,1874.8580187799382,2032.4096402703717,1987.9756849612763,2097.0558675163675,1915.9723581827582,2029.8416449311794,1992.8035711397656,28.349236459226105,-0.7783559816063067,-0.07509726695652341,0.5022635700068501
14,0.15,-6.118036406724754,3.1527395927443007,0.5376008018421846,0.9104761964214277,0.32637116914459124,0.25318425344950574,0.020314760800437027,0.7902499302910676,-1.0452344939036902,0.8378295876292501,1.297319281104913,1.708706735343612,0.4781870935307816,13.16595229377182,-16.204156239599808,8.545092090470163,0.0,0.0,0.0,0.0,0.0,0.0,0.0,0.0,0.0,0.0,0.0,0.0,0.0,0.0,0.0,2130.688733105431,1864.1007321661557,2023.8187866476308,1991.0212698362084,2092.666564722459,1908.8483459841466,2020.912797506678,1993.301401925828,27.676204768818238,-1.3568024420512552,-0.6351544143112549,0.5082873996802406
15,0.16,-6.109482286469253,3.1414901212114303,0.5463814781994433,0.907460908570569,0.33053481552919844,0.25827569762911146,0.023560542301734756,0.9203747979881567,-1.204022277437142,0.9169440854684019,0.3587261542813133,0.8774482247083414,0.48358570093039427,12.991695560858663,-15.750546683100275,7.621173567138317,0.0,0.0,0.0,0.0,0.0,0.0,0.0,0.0,0.0,0.0,0.0,0.0,0.0,0.0,0.0,2119.85314153467,1819.0143501133462,1999.3898569330981,1961.589697488193,2075.325994499514,1870.1312209417827,1994.002534220766,1964.119898230242,26.331783709032674,-1.7968483687677477,-1.1003593448019737,0.5139876215473952
16,0.17,-6.099637088678076,3.128676065674953,0.5559148961351127,0.9068107177706896,0.3309035278871285,0.25978131759095885,0.026661665341170173,1.0482524028469444,-1.3579833117776798,0.988855708462794,-0.4070757199792749,0.17978008018783265,0.4863037626978786,12.70718552791239,-15.21895998220213,7.017772849388204,0.0,0.0,0.0,0.0,0.0,0.0,0.0,0.0,0.0,0.0,0.0,0.0,0.0,0.0,0.0,2077.908575331008,1817.2684762692709,1971.8269018649214,1942.2509665200896,2043.817152859848,1854.4718318077464,1968.6769791046493,1942.9298882198125,24.039919469567447,-2.143241956955106,-1.3508284489207676,0.5160814469587275
17,0.18000000000000002,-6.088538916865162,3.114361764571215,0.5661292415145078,0.9081271518440758,0.3282198418592848,0.2582639635972294,0.029606360811189104,1.1703131525839519,-1.50337700678938,1.0528412714985131,-1.0277982157570547,-0.41351616771770616,0.4892697322066866,11.989350184337333,-14.22358318480188,6.195562428571888,0.0,0.0,0.0,0.0,0.0,0.0,0.0,0.0,0.0,0.0,0.0,0.0,0.0,0.0,0.0,2011.36383696226,1792.1955861624858,1921.2902925149049,1899.8119682573329,1981.8341561103687,1820.8741833119302,1918.041997715096,1898.2011263378083,24.802244648450053,-2.3647675591767334,-1.543824961153419,0.5152434275296414
18,0.19000000000000003,-6.076271072555606,3.0986600632133157,0.5769271754192007,0.910978435970914,0.3230795913331357,0.25433270325342566,0.032445999997020046,1.2814049417962141,-1.6346130164223704,1.104893544036388,-1.5250182497817095,-0.8465817430008422,0.49339042373302766,10.740428873078578,-12.646243083399789,4.891267217724815,0.0,0.0,0.0,0.0,0.0,0.0,0.0,0.0,0.0,0.0,0.0,0.0,0.0,0.0,0.0,1908.7180315166052,1731.3051694718338,1840.136828271234,1814.9060126515326,1883.5378682839541,1750.678730914322,1833.4314998938987,1813.0051480720083,26.979788959071787,-2.4361901232594385,-1.686783564358488,0.5137301675135838
19,0.20000000000000004,-6.062915776150611,3.081678148671064,0.588236331256251,0.9149283453815445,0.3160141952688244,0.24859368817367655,0.035246693549826597,1.389716159460726,-1.761719213860123,1.1579716466992067,-1.8970643155613256,-1.1710652920837585,0.4986732889923587,10.807159376726938,-12.650024049656095,5.5413355413604926,0.0,0.0,0.0,0.0,0.0,0.0,0.0,0.0,0.0,0.0,0.0,0.0,0.0,0.0,0.0,1910.6055094784713,1779.3735678882294,1860.9395813215613,1839.4124192760073,1896.1364395888502,1797.8240071474015,1860.4589522474078,1841.9435739024602,26.818358771688054,-2.3769687447382957,-1.7402235135721182,0.5123200137716298
20,0.21000000000000005,-6.048454825883602,3.0634021685188055,0.6001401681965227,0.9195845228403684,0.3075839115824237,0.24147939134106525,0.03800192423623809,1.5034329113761267,-1.8945054047580558,1.2254634222180552,-2.133254568546178,-1.4125294446604488,0.5048444823017385,11.503972623083225,-13.409118998049419,7.298946121854222,0.0,0.0,0.0,0.0,0.0,0.0,0.0,0.0,0.0,0.0,0.0,0.0,0.0,0.0,0.0,1966.5342548566289,1880.1302420366671,1931.1215141934822,1921.1754237358368,1960.6828829046226,1894.6551680184994,1935.4345654502679,1924.280692731442,26.67440746007976,-2.2354012685312235,-1.7185130224764507,0.5107470890591195
21,0.22000000000000006,-6.032852014662983,3.043795307005322,0.6127665386475398,0.9245793268794208,0.29837943016677265,0.2333834532725217,0.04068104840269025,1.6165150780192776,-2.0260947809996925,1.3003924029588034,-2.2363791239910187,-1.5666571889975704,0.5114239428542032,11.14308682814702,-12.953201543425497,7.655201665500266,0.0,0.0,0.0,0.0,0.0,0.0,0.0,0.0,0.0,0.0,0.0,0.0,0.0,0.0,0.0,1946.2863909339071,1899.1429758963588,1923.2902894625738,1923.8457770571058,1942.2791615710253,1903.4702477521826,1924.9231187490266,1921.6485770230095,27.093048298252167,-2.0215262717336713,-1.6536420433845478,0.5086233304913287
22,0.23000000000000007,-6.016138626769349,3.0228973495887663,0.6261577008418585,0.9295958105592668,0.2889380227006265,0.22470912917793093,0.043269565431234856,1.7254472264769685,-2.152655535776467,1.3783329311979506,-2.230034342667792,-1.6394671653913078,0.5178104439951128,10.706769730339127,-12.438565745624075,7.938755132131048,0.0,0.0,0.0,0.0,0.0,0.0,0.0,0.0,0.0,0.0,0.0,0.0,0.0,0.0,0.0,1925.0507952185503,1912.2673158639295,1913.7803448354282,1921.7086469497845,1925.5879946173222,1911.610426161986,1915.9017931381454,1918.7180742568971,27.477172258993203,-1.7664613168564063,-1.5358673441306494,0.5045639257772057
23,0.24000000000000007,-5.99835135826532,3.0007515025430687,0.6403533434125164,0.9343942658138336,0.2797119310398854,0.21581171098775004,0.045759119841900064,1.8316020180504495,-2.2760855346907976,1.4618337657306224,-2.1307922980967335,-1.6489049506620546,0.5234238138645922,10.484393507876222,-12.203634080498738,8.593553355217498,0.0,0.0,0.0,0.0,0.0,0.0,0.0,0.0,0.0,0.0,0.0,0.0,0.0,0.0,0.0,1925.6828329598084,1941.2524819823777,1923.5315808769749,1938.3796832499938,1930.9662410356138,1937.7946310778227,1927.4715290847878,1935.564616033624,27.699815438246052,-1.4482515241911387,-1.3864899655113119,0.5005345681157638
24,0.25000000000000006,-5.979514044024619,2.977382963944233,0.6554164599511049,0.9388044730780405,0.27106973014664326,0.20700048110069721,0.04814731094223807,1.935430890001898,-2.3972127987750844,1.5517807004941355,-1.9621867699137847,-1.5990255702299307,0.5277313529388432,10.246789514807952,-11.980350230990311,9.224300469581337,0.0,0.0,0.0,0.0,0.0,0.0,0.0,0.0,0.0,0.0,0.0,0.0,0.0,0.0,0.0,1928.825881282747,1966.9890897360874,1934.462945265105,1953.0438798954233,1937.1179555726835,1960.5594783210977,1938.5270093772235,1950.133834129878,27.858595742579748,-1.0924903250935587,-1.2173277775849183,0.4977266916041057
25,0.26000000000000006,-5.95965227457413,2.952816078792756,0.6714065693390745,0.9427061354244295,0.2633249347648882,0.19854851999497936,0.05043417662664803,2.036404542316608,-2.515695969692242,1.646994199046428,-1.7264352297061025,-1.5029095029283315,0.5304501693071161,9.946636447563773,-11.710800227862972,9.699544139178062,0.0,0.0,0.0,0.0,0.0,0.0,0.0,0.0,0.0,0.0,0.0,0.0,0.0,0.0,0.0,1927.6846802005502,1985.5743851105303,1939.3559635797246,1962.9766158007228,1938.494714651647,1976.1628378180164,1943.8547511500847,1959.1813540587134,27.99577758777016,-0.7240055686986572,-1.0242809423439996,0.4953780652149544
26,0.2700000000000001,-5.938796384383662,2.9270780436128323,0.6883700667159365,0.946017945898993,0.25676072950615086,0.19067237580631466,0.052611965605693034,2.1342425918102803,-2.6314717853239986,1.7462928278146999,-1.43741898181674,-1.3726328861294927,0.5315836010966224,9.63405341015422,-11.452895687906306,10.068958860575572,0.0,0.0,0.0,0.0,0.0,0.0,0.0,0.0,0.0,0.0,0.0,0.0,0.0,0.0,0.0,1926.01770370375,1999.266375348103,1942.1807448090628,1970.656122522365,1938.710515182326,1987.7998799056177,1947.136042763924,1966.2771869994997,28.08543766391986,-0.36101836826367956,-0.8249287128440193,0.4905046280635014
27,0.2800000000000001,-5.916977585808741,2.900194469787333,0.7063433501997667,0.9486961274817656,0.25158705713386753,0.18354748006297567,0.054680279318537466,2.229017612500995,-2.7448809849437494,1.8488232016060595,-1.113504083676989,-1.2125801316344698,0.5312736203678573,9.338162021735208,-11.239073052033088,10.359263882768088,0.0,0.0,0.0,0.0,0.0,0.0,0.0,0.0,0.0,0.0,0.0,0.0,0.0,0.0,0.0,1925.4583494425394,2009.7940102022471,1945.5540642580452,1976.4949420770827,1939.5000845446652,1996.9494655596116,1950.5130250958432,1972.1145665565402,28.131431683824683,-0.029024945792149093,-0.6092184403681267,0.48280559712081356
28,0.2900000000000001,-5.894225711598394,2.872186948815473,0.725354178718626,0.950728559666207,0.24792773919091737,0.17730783494205432,0.05664780351312117,2.320891421615416,-2.856333835002709,1.9536402400482782,-0.7728398908995214,-1.0339027679800776,0.5295649860659172,9.059860264206687,-11.06596424075068,10.548621114552681,0.0,0.0,0.0,0.0,0.0,0.0,0.0,0.0,0.0,0.0,0.0,0.0,0.0,0.0,0.0,1925.8980620392201,2016.3546885842193,1948.0382471663488,1979.7685375860754,1940.421157087374,2002.8772025841558,1952.7844545890803,1975.4860255125557,28.156273597245807,0.30009470307230346,-0.39133943106332714,0.4735737269398203
29,0.3000000000000001,-5.870568708319781,2.843072902307344,0.7454203806662094,0.952128271210865,0.2458114315503355,0.17205308300348104,0.05853402351779184,2.4100908615074697,-2.966263067955362,2.0597377208024756,-0.4370205397532743,-0.8372345034343884,0.5265061255211703,8.807671156906505,-10.936724699815326,10.637811076082748,0.0,0.0,0.0,0.0,0.0,0.0,0.0,0.0,0.0,0.0,0.0,0.0,0.0,0.0,0.0,1927.086429135227,2019.4799901631443,1950.627121861127,1979.6079562546531,1941.5253024814174,2005.8932371193807,1954.4894181320942,1976.07640564654,28.14679144841604,0.6101991912836637,-0.18942597177920675,0.46503251741028817
30,0.3100000000000001,-5.846031668091857,2.8128651259550956,0.7665502539702788,0.9529160130286729,0.24521649810840365,0.16785817080079207,0.06036203827242391,2.4969665955619975,-3.0751684689448613,2.166241963882095,-0.10448365269819226,-0.6302533857807507,0.5222691288414248,8.594829222045686,-10.85940822310949,10.644998099652803,0.0,0.0,0.0,0.0,0.0,0.0,0.0,0.0,0.0,0.0,0.0,0.0,0.0,0.0,0.0,1928.0762916042609,2021.3318704999574,1951.8981071094447,1979.1202163684616,1942.5361882266773,2007.6062552571848,1955.4461367031086,1975.864156188462,28.111033968314267,0.8848999015390948,0.00875657436336924,0.45747756659154254
31,0.3200000000000001,-5.820635900509677,2.781571433546981,0.7887435425687473,0.9531141003804686,0.24610957225230615,0.16474709736074644,0.06214486312581149,2.581901658573315,-3.1835231195110145,2.272277499610624,0.21728557947465008,-0.4253489964117991,0.517197794263804,8.419846521262375,-10.826713827593704,10.563031261597189,0.0,0.0,0.0,0.0,0.0,0.0,0.0,0.0,0.0,0.0,0.0,0.0,0.0,0.0,0.0,1929.260280888361,2020.419555830387,1951.7696719119742,1977.9641931634915,1943.0683047668056,2007.1218810563546,1955.0987809597611,1974.8528928617454,28.054545783588644,1.1205198777989116,0.1928018847978984,0.4475672788687646
32,0.3300000000000001,-5.794398845370555,2.749195092435574,0.8119913195631635,0.9527510821827421,0.2484124992754579,0.16270794525584292,0.06389624522580449,2.6652927556330854,-3.29177128341888,2.3770103532390747,0.517171258009159,-0.22285470867227491,0.511697485951151,8.285062324761228,-10.836865701456588,10.40082264074016,0.0,0.0,0.0,0.0,0.0,0.0,0.0,0.0,0.0,0.0,0.0,0.0,0.0,0.0,0.0,1930.5219829037628,2017.3186135490282,1951.727176719489,1975.1698465155027,1943.4248350793362,2004.719980088217,1954.3988265397597,1972.6393612630104,27.965662222830083,1.295181318784088,0.37352848661886445,0.4357004969427577
33,0.34000000000000014,-5.767333894643616,2.715735086400486,0.8362767639596265,0.9518603009565977,0.2520006159253605,0.1617090026567544,0.06563425550588757,2.7475494178801982,-3.400320451708973,2.4796959960204883,0.7876107736735551,-0.028559813106018565,0.5059072869164254,8.19086065915986,-10.885037728505687,10.16751660576487,0.0,0.0,0.0,0.0,0.0,0.0,0.0,0.0,0.0,0.0,0.0,0.0,0.0,0.0,0.0,1932.3516350549696,2012.5942054846591,1951.1347849723215,1971.0773528308912,1944.0384706252369,2001.0360752337642,1953.1403344294235,1969.120268572175,27.890251676475767,1.4344472236551244,0.5469500860578099,0.42238125695595624
34,0.35000000000000014,-5.739450521897545,2.681186822181716,0.861575701726973,0.9504829466198387,0.25669619241422703,0.16170578994483922,0.06738301331361438,2.8290360009500377,-3.5094634262693365,2.5795912052082524,1.014247009589678,0.16002943923637006,0.49984742574130187,8.13092507064983,-10.956499202904535,9.860300436007385,0.0,0.0,0.0,0.0,0.0,0.0,0.0,0.0,0.0,0.0,0.0,0.0,0.0,0.0,0.0,1934.3689736790764,2005.817082355152,1950.670027079096,1964.2815936385346,1944.4845174207192,1995.5977221427793,1951.4182601665102,1963.4481691176986,27.807753484201072,1.5407935305708678,0.6885444966792279,0.4109906722454599
35,0.36000000000000015,-5.7107543524886895,2.6455428522354736,0.8878576656409438,0.9486622488510518,0.26229554430980223,0.16265410630527194,0.06917099639388734,2.9101841188613253,-3.619513245023075,2.6762453917938966,1.2014777722835155,0.341901746099135,0.4935336846832734,8.116793168902348,-11.05997632880662,9.520317669557077,0.0,0.0,0.0,0.0,0.0,0.0,0.0,0.0,0.0,0.0,0.0,0.0,0.0,0.0,0.0,1936.6608365583102,1999.7515726030094,1950.238186349425,1957.9808903271362,1945.5673405404734,1990.6886560426178,1950.1563036870962,1958.0119002478448,27.72544756916581,1.6042746567707928,0.8193753825982457,0.4018500515042777
36,0.37000000000000016,-5.681246716789644,2.6087929146983186,0.9150883310486345,0.9464404140052048,0.2686155574406091,0.16447836474004165,0.07101473488628514,2.9913882699813716,-3.7306814405690187,2.769264966989373,1.3520935415573994,0.5048965387938529,0.48714506834145055,8.138257321929743,-11.178383323869667,9.139857352499448,0.0,0.0,0.0,0.0,0.0,0.0,0.0,0.0,0.0,0.0,0.0,0.0,0.0,0.0,0.0,1939.0864979037497,1992.7378197865794,1948.651464503458,1952.7550935996444,1946.4157998700243,1985.1092675510265,1948.2209410356948,1953.1327507155406,27.645571719473065,1.6392682384751596,0.9337365211426961,0.39039817762807355
37,0.38000000000000017,-5.650925332146551,2.570925165975875,0.9432295803420789,0.9438635052828104,0.27547531103923284,0.16708325109487657,0.07292615173345332,3.0729870330478906,-3.8430900949916444,2.858313548992371,1.4631550561670665,0.6533903356184593,0.48090740641098034,8.191834578457069,-11.305959487319495,8.729983682775444,0.0,0.0,0.0,0.0,0.0,0.0,0.0,0.0,0.0,0.0,0.0,0.0,0.0,0.0,0.0,1941.3428321786203,1985.4249445636924,1947.6979996870664,1947.2998101968885,1947.1968237116087,1979.1788107743855,1946.5485706106924,1948.4116541805906,27.55245308997654,1.6229897941225022,1.0361953281298089,0.37723933072685484
38,0.3900000000000002,-5.61978471582493,2.531926867199198,0.9722404129581994,0.9409776205520244,0.282699072761947,0.17038065043611825,0.07491852799375653,3.155280839081382,-3.956794893070551,2.9431461541725237,1.539960405004478,0.7861033133423776,0.4747108050418826,8.273490855316812,-11.436053335116991,8.298864242924697,0.0,0.0,0.0,0.0,0.0,0.0,0.0,0.0,0.0,0.0,0.0,0.0,0.0,0.0,0.0,1943.4888639466617,1978.77552492518,1946.2048891393054,1942.0959964636384,1948.0767886452493,1973.7685057039325,1944.587239286864,1943.6658959885938,27.504692346479413,1.56941549880296,1.1326563067081958,0.3621949435601515
39,0.4000000000000002,-5.587816762206302,2.4917852837091954,1.0020773920519535,0.9378344337568956,0.29010659623200585,0.17428378332746627,0.07700584751580639,3.2384851199844,-4.071727098302825,3.023501753545234,1.5744544491969243,0.9048791628630116,0.468326140391676,8.373178158251893,-11.553794993694133,7.841634658542596,0.0,0.0,0.0,0.0,0.0,0.0,0.0,0.0,0.0,0.0,0.0,0.0,0.0,0.0,0.0,1945.85352950297,1971.3295370232881,1944.8864576601632,1935.4834080892817,1948.8535421467109,1967.8204860795738,1942.3756514776962,1937.9072456523656,27.46679888933006,1.4918455549087857,1.1952118736243005,0.3497093935003023
40,0.4100000000000002,-5.555010963500909,2.4504880973793877,1.032695794546623,0.9344929663910801,0.2975045102990779,0.17871783782427003,0.07920793243560321,3.3229041291488812,-4.18792479269537,3.099462393590621,1.5693252103946242,1.0133804679292673,0.461520957026805,8.50727259583195,-11.679852743578856,7.406900294977259,0.0,0.0,0.0,0.0,0.0,0.0,0.0,0.0,0.0,0.0,0.0,0.0,0.0,0.0,0.0,1949.435774116582,1965.9304544191202,1945.096949953002,1930.037859606735,1951.2287414344394,1963.7461836805228,1941.8480952817104,1933.3759282700544,27.410755905201395,1.3642814052248249,1.2657476291969145,0.3418630896013202
41,0.4200000000000002,-5.521353828698182,2.408022791134018,1.064052230023666,0.9310145874072618,0.30472649274109487,0.18359122066831965,0.08153444885515469,3.408783247468366,-4.305328298341689,3.1711147375573496,1.531709890180405,1.0999732258884076,0.45433999919084395,8.660809161246785,-11.793342892545411,6.9770653001923755,0.0,0.0,0.0,0.0,0.0,0.0,0.0,0.0,0.0,0.0,0.0,0.0,0.0,0.0,0.0,1953.2570726044985,1960.5299583617198,1944.6089605379304,1926.6624650105794,1953.6116822754589,1959.764748501114,1941.267753335734,1930.1837196551255,27.359345244606182,1.2428649549869646,1.3275899172173384,0.33178144065130877
42,0.4300000000000002,-5.486830198882057,2.3643784685820255,1.096103356661732,0.9274656627942136,0.31160650816001206,0.18881971443128753,0.08399966578565335,3.4962120382208184,-4.423674748005088,3.2383880411026436,1.4532673701786476,1.1795521121558319,0.447058681472358,8.818918538994414,-11.873989981586952,6.537688039383482,0.0,0.0,0.0,0.0,0.0,0.0,0.0,0.0,0.0,0.0,0.0,0.0,0.0,0.0,0.0,1955.7460316266577,1954.3174018276538,1945.5633996024778,1921.564015460721,1954.7960904714166,1954.7457525621878,1941.1263554962745,1926.2038150126793,27.30290051117581,1.1044512187779796,1.3728892205848915,0.31922382131349775
43,0.4400000000000002,-5.451424160662355,2.319547130354892,1.128805479419064,0.9239016166981403,0.31800814554109263,0.19435271585961528,0.08662357571740871,3.5852816309224496,-4.542687112246037,3.3013324331769263,1.3561276027992317,1.250549976530789,0.43958198423204925,8.987269570636336,-11.92832933844823,6.109586159291247,0.0,0.0,0.0,0.0,0.0,0.0,0.0,0.0,0.0,0.0,0.0,0.0,0.0,0.0,0.0,1956.6643624055782,1950.2675530322092,1944.786433996819,1918.1230689246424,1955.255854988321,1951.177074832423,1940.2745450565385,1922.849230598609,27.304497188724152,0.9265751594123861,1.4259194383937976,0.3036631804007106
44,0.45000000000000023,-5.415118934225989,2.2735235927572197,1.1621157719643562,0.9203656263041144,0.32385137107575396,0.20013265910110364,0.08941097321532138,3.6760574338754344,-4.662061328033187,3.360038462889775,1.2402291493219861,1.3092117219545842,0.43162462605537144,9.16011688501328,-11.950406149044746,5.690788676145697,0.0,0.0,0.0,0.0,0.0,0.0,0.0,0.0,0.0,0.0,0.0,0.0,0.0,0.0,0.0,1957.6900908956356,1946.1840200267438,1943.1375036231661,1914.8058225113473,1955.4605154883752,1947.9039391530562,1938.501619964636,1919.6487701853114,27.316270413801355,0.7316167848072969,1.4568693381804207,0.29127564932333927
45,0.46000000000000024,-5.377896549037518,2.226304926187784,1.1959935987310326,0.9169083097247477,0.329033399994629,0.20611389461372126,0.0923755145741799,3.7687563160731337,-4.781704905709188,3.4149236895136315,1.0961445797431053,1.365361598761732,0.42286569231773624,9.361197511421171,-11.97120746367819,5.326900337939922,0.0,0.0,0.0,0.0,0.0,0.0,0.0,0.0,0.0,0.0,0.0,0.0,0.0,0.0,0.0,1961.0726931971174,1944.0749465027643,1944.7051257018866,1911.7031747060967,1958.0881965283193,1946.7466265399605,1939.3072406523513,1917.5588380778145,27.286179098769896,0.4958816321178713,1.5113464882226986,0.2835090354076714
46,0.47000000000000025,-5.339736860244681,2.1778892152574065,1.2304027137738962,0.9135864773459575,0.33344164799782416,0.21224939151491393,0.09553330096174956,3.8635331758856486,-4.901423495739533,3.466342841999044,0.9294149140346083,1.4090561584960064,0.41339872451440446,9.57222190273832,-11.965137493915812,4.99213199155335,0.0,0.0,0.0,0.0,0.0,0.0,0.0,0.0,0.0,0.0,0.0,0.0,0.0,0.0,0.0,1964.7126010245486,1941.844132786246,1946.151585006284,1910.3609637302163,1960.7897650391624,1945.4548414708172,1940.6327104708728,1916.4614121221323,27.2535965256769,0.3031902811251437,1.5664845551835274,0.272661722342539
47,0.48000000000000026,-5.300619306184193,2.12827795378959,1.2653089566318523,0.910456084583542,0.33695724147627815,0.21850891231356293,0.09891102416337187,3.9603092761958094,-5.020721229253357,3.514353144891224,0.7313693825552255,1.4581074236078728,0.4035576179016574,9.768945729718759,-11.900194596020874,4.655932114279615,0.0,0.0,0.0,0.0,0.0,0.0,0.0,0.0,0.0,0.0,0.0,0.0,0.0,0.0,0.0,1966.019211082563,1938.175243864284,1948.4915262090294,1906.2689854224257,1961.345921066503,1942.3513945264144,1941.7599093199728,1913.565582517261,27.21392355043456,0.13001007769963105,1.6015286077034838,0.25925754196881945
48,0.49000000000000027,-5.260524145452054,2.0774777677441203,1.3006789645099952,0.9075433778796963,0.3395160010364629,0.2249006928765484,0.10253575303555255,4.059057392385632,-5.139141166695278,3.559138353164048,0.5367869071508345,1.5094276921588468,0.3932615314529542,9.967227708927773,-11.794688570618383,4.345139413031163,0.0,0.0,0.0,0.0,0.0,0.0,0.0,0.0,0.0,0.0,0.0,0.0,0.0,0.0,0.0,1964.5601454484997,1937.4787724467103,1947.6032986234768,1904.7242522744045,1960.4021107903525,1941.1106063365744,1941.2434638294724,1911.6184600403383,27.242912171172897,-0.09398547805787613,1.6611851241994378,0.24128102810276225
49,0.5000000000000002,-5.219431624494344,2.0254994681510543,1.336481687300488,0.9048437562480083,0.34115325859236856,0.23141192741203753,0.10639901682933786,4.159781055354879,-5.256278988520181,3.6009348806116916,0.3517633873676137,1.552457058084131,0.3822952748980992,10.165067200556877,-11.649656047231005,4.057225060277503,0.0,0.0,0.0,0.0,0.0,0.0,0.0,0.0,0.0,0.0,0.0,0.0,0.0,0.0,0.0,1962.977958687673,1936.7977481943692,1944.6031016497525,1904.4320314056558,1958.871142485169,1940.3380296001535,1938.9155882131943,1910.6103766890428,27.277582500538934,-0.32718324360048606,1.7232711510150356,0.22777700626051997
50,0.5100000000000002,-5.177321025350021,1.9723566516994002,1.3726897140305199,0.9023655550091989,0.3418520986567456,0.23803680115677403,0.1105080498062,4.262725627883206,-5.372039944243477,3.640307447376247,0.1483444621534555,1.6035607454717415,0.37029585238626045,10.397620712663702,-11.505981265873544,3.838901252658733,0.0,0.0,0.0,0.0,0.0,0.0,0.0,0.0,0.0,0.0,0.0,0.0,0.0,0.0,0.0,1965.3902194965328,1937.4078731427646,1946.9293777355822,1902.638403912832,1960.922532314268,1941.5413805647981,1940.2577919228888,1910.1057471709028,27.246769720476316,-0.5808347910235574,1.824381430462798,0.21955116981739584
51,0.5200000000000002,-5.1341691133427085,1.9180639661165413,1.409281270037058,0.9001278428582359,0.34153508485569134,0.2447914393463751,0.11489474986579988,4.368058840516123,-5.4861972136920825,3.6776967942924803,-0.06809537681108298,1.659221159774288,0.35744045322013834,10.640050633642595,-11.329906081681607,3.655129217420061,0.0,0.0,0.0,0.0,0.0,0.0,0.0,0.0,0.0,0.0,0.0,0.0,0.0,0.0,0.0,1967.4762186108426,1937.9577865739,1949.8623833504307,1901.87323714353,1962.774142950187,1942.2771099051772,1942.7995824792877,1909.878664069163,27.19487707052244,-0.784058045866961,1.9430397158376618,0.2079553813623121
52,0.5300000000000002,-5.0899525580573135,1.8626402580645811,1.446236943823574,0.89813489846587,0.340125427737354,0.25172086213230965,0.11960353310646872,4.475619093646302,-5.598128185880555,3.7131235918839165,-0.3014071645131786,1.7362906403899467,0.34416532704046426,10.857358146465934,-11.079942118112918,3.4618611537653443,0.0,0.0,0.0,0.0,0.0,0.0,0.0,0.0,0.0,0.0,0.0,0.0,0.0,0.0,0.0,1965.9286721283288,1936.6346190011484,1952.5075505546552,1898.067532909395,1961.2746120896163,1940.6029647227015,1944.2318968874997,1907.211750274047,27.135852945349697,-0.9396532559006903,2.028324813256083,0.19323042317489186
53,0.5400000000000003,-5.044649735181823,1.8061108797426015,1.4835373791816273,0.8963528953390882,0.33760149979882287,0.25890721701406255,0.12467464589423151,4.585309380537998,-5.70724572627497,3.7466757147008996,-0.5202956482028499,1.8321931717943805,0.3303910140412524,11.071279551965851,-10.777134882683725,3.283076535612217,0.0,0.0,0.0,0.0,0.0,0.0,0.0,0.0,0.0,0.0,0.0,0.0,0.0,0.0,0.0,1961.1998369144715,1937.402992558801,1951.4933328931531,1895.8670995470336,1957.702365399454,1940.0989524126721,1943.3960213847483,1904.7404971826154,27.1613180917284,-1.1647592192889236,2.1510617569334167,0.17245780846264325
54,0.5500000000000003,-4.99823925424481,1.7485063087922785,1.5211647578833005,0.8947204660049001,0.33405263941621866,0.2663832249629455,0.1300926564775022,4.697159444060726,-5.813099306492677,3.7785454595381824,-0.7105546859061191,1.92197806904254,0.3158858544237324,11.290127004922823,-10.433360301006722,3.1241206992933535,0.0,0.0,0.0,0.0,0.0,0.0,0.0,0.0,0.0,0.0,0.0,0.0,0.0,0.0,0.0,1956.7140396534915,1937.837912105183,1946.63975705649,1896.551762239076,1953.7874772292992,1939.9090631900845,1939.856058285267,1904.0150979601358,27.22517870849444,-1.3320141586218266,2.294923259591468,0.15307867515146908
55,0.5600000000000003,-4.950697890634586,1.6898598640561788,1.5591047412355195,0.8932008752114623,0.3294976306672884,0.2741650269769728,0.13585671087155315,4.8115695889013335,-5.9156208991360755,3.80930779624418,-0.9179427728671348,2.0278319801623854,0.3001572317120823,11.563482424237215,-10.094670676861206,3.0372038769801435,0.0,0.0,0.0,0.0,0.0,0.0,0.0,0.0,0.0,0.0,0.0,0.0,0.0,0.0,0.0,1958.0934301621621,1939.0120462723644,1949.147140628512,1894.4227197237637,1954.9038183277455,1941.6284824623167,1941.0428968321971,1903.5958898244512,27.21304840686156,-1.4507683756768384,2.5144528784893043,0.1403195596438499
56,0.5700000000000003,-4.901997792328002,1.6302052853512052,1.5973491802153803,0.891747670831604,0.3239164170355392,0.2823171225018933,0.14199045279003392,4.928964013304506,-6.014688947980827,3.8395060058353003,-1.105915938809163,2.15112354801595,0.2831544181836424,11.874696249717154,-9.736813730489402,2.9960224785123835,0.0,0.0,0.0,0.0,0.0,0.0,0.0,0.0,0.0,0.0,0.0,0.0,0.0,0.0,0.0,1957.669650770541,1944.4145426129496,1951.087503084042,1896.3423234649679,1955.8594294348914,1945.6955984160572,1943.4302913026947,1905.277765923093,27.147270210551053,-1.6388177216880444,2.739920227624605,0.12554253344876523
57,0.5800000000000003,-4.852109069038736,1.569579700331131,1.6358925514680294,0.8902453405784999,0.31738937768614683,0.2909868240301395,0.14850550411053343,5.0492641821992414,-6.1097060291458964,3.869050338126537,-1.2626978686257404,2.320032107109872,0.26539809023013256,12.16252060423706,-9.304831149444581,2.9236448835465723,0.0,0.0,0.0,0.0,0.0,0.0,0.0,0.0,0.0,0.0,0.0,0.0,0.0,0.0,0.0,1950.6456457764757,1949.9752212606843,1951.756070912613,1895.9213055792886,1951.0916052740047,1948.637620377907,1943.6595881922453,1905.169576986634,26.97888853867502,-1.7954779804734906,2.898264977683371,0.10715834575713452
58,0.5900000000000003,-4.8010035450545425,1.5080270478044389,1.6747268771852402,0.8885925378036938,0.309915236689618,0.3003230957785714,0.155440940453872,5.172311739431569,-6.19999910302559,3.8976600551851517,-1.4350506647278272,2.5142017925534654,0.24685795101595417,12.438165006384061,-8.807362009862985,2.8244350956039277,0.0,0.0,0.0,0.0,0.0,0.0,0.0,0.0,0.0,0.0,0.0,0.0,0.0,0.0,0.0,1946.7823802214657,1948.6835406537796,1953.2148527698153,1890.5080730614527,1946.722054241126,1947.6223461412756,1943.617122345131,1901.1940154927574,26.666012431592534,-2.0146632210373343,3.0811667735493615,0.08113553851935146
59,0.6000000000000003,-4.748655189552293,1.445598380880003,1.7138406907038646,0.8867490169675579,0.3014544805498797,0.31031884323477155,0.16279924016071212,5.297768768709136,-6.284779315107974,3.9248682790209215,-1.5993095829589277,2.6901171801340706,0.22723478386721643,12.669999720523961,-8.226777676881625,2.670454683032286,0.0,0.0,0.0,0.0,0.0,0.0,0.0,0.0,0.0,0.0,0.0,0.0,0.0,0.0,0.0,1941.424154833783,1942.2659509498321,1946.0816811047484,1886.1940479181649,1940.6827320381394,1941.4936043255263,1937.560010469011,1895.3829013806376,26.729683708793583,-2.2276509528308024,3.261239691567831,0.05485517371123245
60,0.6100000000000003,-4.695043167649601,1.3823533292610923,1.7532164291068482,0.8846924377057553,0.2919576223770462,0.32091420153091216,0.1705699641143405,5.424931893868324,-6.363132901235827,3.9499313415883672,-1.7893216377047905,2.8703988322153773,0.20586773955645624,12.821736602293576,-7.5523611193411,2.4363525632242755,0.0,0.0,0.0,0.0,0.0,0.0,0.0,0.0,0.0,0.0,0.0,0.0,0.0,0.0,0.0,1933.120671159365,1929.7975227787747,1936.8639271027498,1872.2166014457523,1931.2974562601662,1929.559526306425,1926.8591041113373,1882.4918382026515,27.034183468481974,-2.4422118281903913,3.484946143949334,0.03509153310956621
61,0.6200000000000003,-4.640145019360671,1.3183549981812113,1.7928375639900955,0.8823956193093759,0.2813244375343362,0.33207900620371356,0.178768189307735,5.555360985779852,-6.435570895123969,3.97428094669726,-1.9887828503217988,3.0503247175428534,0.18249049071414736,13.21930394124049,-6.978364859794972,2.427884110905776,0.0,0.0,0.0,0.0,0.0,0.0,0.0,0.0,0.0,0.0,0.0,0.0,0.0,0.0,0.0,1936.2075978059993,1930.7108076371562,1939.3134492231081,1872.3075660365123,1934.844500402581,1931.1790270120698,1929.834908664262,1883.4690476873411,27.077604355753973,-2.6991668133417313,3.771879600977416,0.01662609670920811
62,0.6300000000000003,-4.583917322945333,1.253659426767874,1.8327063523232974,0.8797942192711625,0.2694906735982438,0.3438260911568264,0.18740471611042323,5.691128716817819,-6.502607588003855,3.9996917250817616,-2.1948118642504535,3.2514187538574344,0.15746817137920924,13.810065440011954,-6.433548640545794,2.5770009948180572,0.0,0.0,0.0,0.0,0.0,0.0,0.0,0.0,0.0,0.0,0.0,0.0,0.0,0.0,0.0,1945.3549866926726,1941.4709049772086,1952.2383695652736,1881.2301807755846,1944.9766652593642,1941.6931466465253,1942.5032050121386,1893.7631705132942,27.010412280100944,-2.9330287609873795,4.009971865315,-0.005245350788970551
63,0.6400000000000003,-4.52630658394325,1.1883245543415253,1.872832561281311,0.8767864099302346,0.25634209529404034,0.3562458889454232,0.19652783047547495,5.8317721731346746,-6.563191605427217,4.025555334635208,-2.424046355588394,3.493134411869769,0.13084292023891617,14.264339630422285,-5.734284609967943,2.5835484816383314,0.0,0.0,0.0,0.0,0.0,0.0,0.0,0.0,0.0,0.0,0.0,0.0,0.0,0.0,0.0,1945.605799989064,1943.6712779784177,1960.0108190710391,1878.6728869668787,1945.1939117516117,1942.9657796536671,1947.9509817285204,1892.962717179185,27.039624248148804,-3.055819632939699,4.174081394001517,-0.031055126794838437
64,0.6500000000000004,-4.467268691202779,1.1224212231543738,1.9132156536906562,0.8732738532159794,0.24178246085704871,0.3693675378370503,0.20615926101783857,5.976472651850478,-6.616130911418685,4.050963577183039,-2.6542929856353785,3.731563453743668,0.10231006717550681,14.65656307141927,-4.928917203245398,2.518343004995316,0.0,0.0,0.0,0.0,0.0,0.0,0.0,0.0,0.0,0.0,0.0,0.0,0.0,0.0,0.0,1943.0371971936945,1940.6814415381102,1959.0493614998152,1876.4688240513055,1942.1474656918444,1939.9542318882268,1947.41526017501,1889.9380797252518,27.134620124847146,-3.1442610573033782,4.279393245567012,-0.05906690665398462
65,0.6600000000000004,-4.406761996226526,1.0560293877671718,1.9538510288356696,0.8691755411127912,0.22591605732283573,0.38308393884038683,0.21620016091003907,6.125651810720002,-6.6608119661065555,4.076077425957751,-2.8344713186581014,3.9347414265066707,0.07179790167032879,15.128415047814592,-4.078638840447901,2.499590988227496,0.0,0.0,0.0,0.0,0.0,0.0,0.0,0.0,0.0,0.0,0.0,0.0,0.0,0.0,0.0,1941.9684025677238,1942.6835694430433,1953.6219700015897,1884.8929481663001,1941.8797728990255,1941.396541366962,1945.3137500814598,1895.1523049070438,27.01601412028277,-3.2257442242102736,4.3780400230219065,-0.083162588220142
66,0.6700000000000004,-4.34473818814275,0.9892341349784741,1.9947375485757206,0.8644364697321852,0.2089720805393959,0.3972211919311689,0.2264852843625268,6.279984718763393,-6.69672361658649,4.101226878896137,-2.973557968951711,4.092677042099782,0.03959444500427151,15.661092197500892,-3.1758489017850167,2.5071808718575284,0.0,0.0,0.0,0.0,0.0,0.0,0.0,0.0,0.0,0.0,0.0,0.0,0.0,0.0,0.0,1944.7269336257127,1945.6899129114604,1949.7125095321326,1896.4095139206322,1944.5047217073936,1944.7081044722565,1943.9156130071067,1904.3034182648817,27.353811816325603,-3.309370425793807,4.528625531777022,-0.10455374970748699
67,0.6800000000000004,-4.281148832400876,0.9221271409772619,2.035872177152929,0.8590269316727125,0.19112603243331538,0.4116190146899923,0.23688258089801412,6.4385322608261255,-6.723016020457727,4.125495050418796,-3.0866091119848496,4.224309225421345,0.0063706823660179416,16.03926595758054,-2.180418758744196,2.3784651269993518,0.0,0.0,0.0,0.0,0.0,0.0,0.0,0.0,0.0,0.0,0.0,0.0,0.0,0.0,0.0,1940.1525569709777,1940.8533829603102,1941.8861028893039,1898.318467197892,1939.509401023119,1939.476498144101,1936.7879333327026,1904.8170937715106,28.20949460365902,-3.3379863145915993,4.61221338699769,-0.12847442771806167
68,0.6900000000000004,-4.2159455344509364,0.8548064681709538,2.0772497157096774,0.8528885804466878,0.17246531836665926,0.42622688001788067,0.24732050067583097,6.603262271604873,-6.73942618203659,4.150124491692039,-3.18605433935231,4.366468809858053,-0.02737669991219433,16.748126571350497,-1.1748926522736625,2.468330548810016,0.0,0.0,0.0,0.0,0.0,0.0,0.0,0.0,0.0,0.0,0.0,0.0,0.0,0.0,0.0,1948.6951980717924,1952.3270287049274,1953.4875901686955,1911.7788147531396,1949.636282999934,1950.8508203625943,1948.769393325281,1919.4991059903125,28.59853128563763,-3.3002907125715697,4.659607973737117,-0.15845307718298704
69,0.7000000000000004,-4.149047311721444,0.7873729202233819,2.118885753312784,0.8459700213902756,0.1530963710750367,0.44099543108223704,0.2577193315162513,6.7781240585149565,-6.745463395221882,4.177542679496944,-3.2523507424820215,4.480193904266919,-0.061483175239151984,17.8728646888473,-0.09955763862024014,2.804470695315864,0.0,0.0,0.0,0.0,0.0,0.0,0.0,0.0,0.0,0.0,0.0,0.0,0.0,0.0,0.0,1976.1053940761058,1981.1277520870924,1978.9768184514085,1947.1529926416667,1978.0665666032455,1980.4776519783188,1977.2616073149989,1953.5849206891298,28.895927216032725,-3.2722467820766337,4.6932628375277154,-0.19124441092368016
70,0.7100000000000004,-4.080353975573911,0.7199358921062603,2.1608048573126455,0.8382651594071594,0.13323036467660346,0.45581501674699737,0.267943768280144,6.961760128419821,-6.739928955160917,4.206292880873947,-3.270947557542458,4.5637144837323085,-0.09591479138824406,18.649045450969126,1.1015853991418467,2.8475021200815576,0.0,0.0,0.0,0.0,0.0,0.0,0.0,0.0,0.0,0.0,0.0,0.0,0.0,0.0,0.0,1988.4339671364135,1996.4007815502353,1987.0676093178085,1968.8072258544166,1990.242184594853,1994.4535166862788,1986.9104424757506,1972.0490658778413,29.169219712467513,-3.262555915129288,4.713154500161352,-0.21974380685429956
71,0.7200000000000004,-4.009788593456167,0.6526159305328061,2.2030105878141413,0.829788228074518,0.11305459783124745,0.47058979487119784,0.277876590272104,7.152358124464708,-6.721934302647206,4.234680130084573,-3.268776113187679,4.624926469764116,-0.13057543029324878,19.30795260744045,2.3759070197773013,2.7682854921717848,0.0,0.0,0.0,0.0,0.0,0.0,0.0,0.0,0.0,0.0,0.0,0.0,0.0,0.0,0.0,1998.8332177078305,2006.5389962671225,1993.8337019427615,1983.5122937394249,2000.2317271425263,2004.6378808077643,1994.2408549356855,1985.7628798682317,29.47528861917229,-3.2630939605079505,4.755879649804192,-0.24467776574111974
72,0.7300000000000004,-3.9372856203150453,0.5855409428467361,2.2454945064926726,0.8205707643722159,0.09265545740392246,0.4852264583188782,0.28746107739689775,7.34918319377936,-6.690838751125134,4.2618031365966695,-3.262821019718084,4.667525307575605,-0.16504207538263418,19.907095549587694,3.709718374562243,2.6098632800524157,0.0,0.0,0.0,0.0,0.0,0.0,0.0,0.0,0.0,0.0,0.0,0.0,0.0,0.0,0.0,2009.160699448564,2013.9626090523109,2002.0459203340895,1995.4510446031265,2009.9501603875642,2012.54322861865,2002.6960292323429,1997.3694756010943,29.777855876204427,-3.210185443350251,4.722359896839805,-0.268531094186279
73,0.7400000000000004,-3.862784516606139,0.5188449609004143,2.2882408372093006,0.8106299171839596,0.07205732776306562,0.49966806310498163,0.29667946608231766,7.55194742871081,-6.64603433655108,4.287072434733667,-3.2590988348010685,4.711363399521863,-0.19893500398647265,20.487431231268616,5.104970937963138,2.3986875149519804,0.0,0.0,0.0,0.0,0.0,0.0,0.0,0.0,0.0,0.0,0.0,0.0,0.0,0.0,0.0,2019.3840966587595,2022.8407209212264,2013.548016349128,2006.639934975814,2020.282404335537,2021.415495351534,2013.9004814826287,2008.9512152523937,30.014459521092995,-3.085640237435145,4.697738685264071,-0.2967900044035467
74,0.7500000000000004,-3.7862277364384873,0.4526679968727634,2.33122784236964,0.8000073131993882,0.05134170336163245,0.5138367321853448,0.30549000144114125,7.760227994035587,-6.586954526801834,4.3098184430832935,-3.231793198545721,4.7181619499170475,-0.2319426252034099,21.01413708179134,6.551370643065546,2.1149978224324073,0.0,0.0,0.0,0.0,0.0,0.0,0.0,0.0,0.0,0.0,0.0,0.0,0.0,0.0,0.0,2029.685138865861,2031.336535981423,2020.5067362705238,2022.2093226463483,2030.2828419173618,2030.2445578570341,2022.9084516715109,2022.4108818565066,30.308353124131195,-3.000967481074057,4.715091687294398,-0.3264450215300385
75,0.7600000000000005,-3.7075644921992117,0.38715459995689017,2.3744258130173956,0.7887690779424629,0.030699865705399752,0.5276696357312837,0.31379231261246976,7.973062475385562,-6.513294543352086,4.329101463483208,-3.159717073177709,4.711824635165603,-0.26395914096559336,21.42793844596369,8.01515612515491,1.7285577049666045,0.0,0.0,0.0,0.0,0.0,0.0,0.0,0.0,0.0,0.0,0.0,0.0,0.0,0.0,0.0,2035.1442985744661,2041.2956811512292,2023.9674414209335,2035.8822494289886,2036.8876261758255,2038.9451840055103,2027.8419813093005,2034.3084248328394,30.592414492101653,-2.9954047653189204,4.703784697093831,-0.3530791252833105
76,0.7700000000000005,-3.626752168917821,0.3224518790741736,2.417796395725445,0.7769339659971712,0.010248814375314112,0.5411978230749296,0.321517480990947,8.19000222222121,-6.424771342351946,4.344243199403481,-3.0826753436955205,4.71768334810834,-0.2950647383743543,21.821820343346232,9.510930684935914,1.2857484289208188,0.0,0.0,0.0,0.0,0.0,0.0,0.0,0.0,0.0,0.0,0.0,0.0,0.0,0.0,0.0,2043.6306173884745,2052.113188062734,2034.0616011867212,2045.8888958756597,2045.7817017888292,2049.5999870949418,2037.144766948662,2045.1993222647036,30.940161759538853,-3.0173486131445157,4.702215706380088,-0.3765347594810652
77,0.7800000000000005,-3.5437521781220855,0.2587095734532828,2.4612945375538544,0.7645216430102088,-0.01005649834704339,0.5544012257864155,0.3287016961569972,8.410474108508128,-6.321191409146255,4.354477239963729,-3.037942743829733,4.714947509606426,-0.3253314031024977,22.142601734605805,11.020586273434496,0.7599811306091553,0.0,0.0,0.0,0.0,0.0,0.0,0.0,0.0,0.0,0.0,0.0,0.0,0.0,0.0,0.0,2056.1899822274627,2057.960601313823,2046.3887867697313,2053.4749861575315,2056.7186228327632,2057.0530272169513,2048.4721189220872,2053.7236842230736,31.20147630604192,-2.951523581137244,4.644863000983555,-0.39769839080045744
78,0.7900000000000005,-3.4585314081073255,0.1960796648211063,2.50486781450463,0.751561281764152,-0.03031897646261798,0.5672064360827408,0.33542996032793476,8.6341061250581,-6.202231125124651,4.359175520265087,-3.0221693104817895,4.713560983468639,-0.35479649392278073,22.438241768007572,12.570696486008615,0.17914681215813744,0.0,0.0,0.0,0.0,0.0,0.0,0.0,0.0,0.0,0.0,0.0,0.0,0.0,0.0,0.0,2070.0865977032054,2065.9544698771588,2061.265425389761,2062.8809071075043,2070.0422481118167,2065.837997701109,2062.6137962364846,2064.041408563557,31.390949275856563,-2.817068467364101,4.607477935597283,-0.4213316125039376
79,0.8000000000000005,-3.3710629807352412,0.134716344002534,2.5484566643333597,0.7381067607082833,-0.05051310330574553,0.5795516693868246,0.3417114260631224,8.859775616682056,-6.067913288882767,4.3574292367277465,-2.9818112620667114,4.685407625664739,-0.38325238360118563,22.588272342108695,14.096722715517984,-0.5041699236345565,0.0,0.0,0.0,0.0,0.0,0.0,0.0,0.0,0.0,0.0,0.0,0.0,0.0,0.0,0.0,2078.4418288744378,2073.8407608379757,2067.397513030742,2075.8616566014834,2078.6138968587193,2073.2727182073627,2070.639777727671,2074.827105513486,31.670563911610344,-2.7419756636170827,4.652179934938491,-0.44380675642303646
80,0.8100000000000005,-3.28133366472986,0.07477141895036724,2.5919917899448612,0.7242320459056492,-0.07047016886525123,0.5914370799912826,0.3474537082760894,9.086066842470256,-5.918633453839937,4.348283369719892,-2.898524941015394,4.654215828729451,-0.41051543186311534,22.599791877849995,15.572383942697776,-1.2801194011551331,0.0,0.0,0.0,0.0,0.0,0.0,0.0,0.0,0.0,0.0,0.0,0.0,0.0,0.0,0.0,2081.4671505042807,2082.841157104483,2070.0809938080415,2086.7677230478744,2082.9663843290396,2080.7925477022427,2074.451397999282,2084.2924871060814,31.95156880551129,-2.779462053278689,4.641694694989358,-0.46607480671142326
81,0.8200000000000005,-3.1893404640157526,0.016393803684270875,2.635395913558034,0.7099216602241174,-0.09013375273376113,0.6029608229638386,0.3525980557710611,9.31252168700656,-5.754437981865373,4.331141032081443,-2.819954279151137,4.659845675841934,-0.4366067749078946,22.60005902648743,17.061533961018505,-2.106120232651776,0.0,0.0,0.0,0.0,0.0,0.0,0.0,0.0,0.0,0.0,0.0,0.0,0.0,0.0,0.0,2088.035824063289,2093.729601123461,2082.1409488516874,2093.7126918099766,2090.3568279585907,2091.195085770133,2084.7505542641948,2093.18888121914,32.32111014654554,-2.86354100750049,4.5939597727744665,-0.48614768126945823
82,0.8300000000000005,-3.095084107498703,-0.040267659528236334,2.6785857659551606,0.695145295391241,-0.10962153121310923,0.6141201264460266,0.35722907004306625,9.538569242386119,-5.575439513113281,4.305307552407058,-2.7940789281275844,4.656243484170135,-0.4619169308115409,22.524063489607116,18.530698513045785,-3.006339904421118,0.0,0.0,0.0,0.0,0.0,0.0,0.0,0.0,0.0,0.0,0.0,0.0,0.0,0.0,0.0,2101.668362914974,2097.9733202763787,2095.940796956673,2099.0386645060316,2101.613785902157,2097.8592676071216,2097.1411994817086,2099.8875119911263,32.54170534368155,-2.8543628305460995,4.53249190009963,-0.5028239142013666
83,0.8400000000000005,-2.998570950281229,-0.0950644914753348,2.721471370982549,0.6799393151965037,-0.12907650107391405,0.6247638593181957,0.3615133532948118,9.763824511947883,-5.381467952336123,4.270208854458031,-2.816633229853854,4.632263098157388,-0.48672027562217474,22.42132284772147,20.03265857042269,-3.9555152952575057,0.0,0.0,0.0,0.0,0.0,0.0,0.0,0.0,0.0,0.0,0.0,0.0,0.0,0.0,0.0,2119.1357751158102,2103.5102680051573,2111.2484341783957,2108.5578525888436,2117.3476537229667,2105.4365427023004,2112.021937507485,2110.0973171761966,32.69772894283942,-2.7920696096673496,4.451903817572735,-0.5218865952492805
84,0.8500000000000005,-2.8998152596149205,-0.1478491779114129,2.7639565448678143,0.6643674157526105,-0.1485069780292612,0.6347903115996825,0.3655172699914367,9.986766648814676,-5.173179484448366,4.225094787957934,-2.8226438872358535,4.591435859584955,-0.5108351179393813,22.12038273821726,21.42664149564144,-4.986005752947165,0.0,0.0,0.0,0.0,0.0,0.0,0.0,0.0,0.0,0.0,0.0,0.0,0.0,0.0,0.0,2126.4167852527917,2109.689029525266,2117.1239847114985,2118.9153784573937,2125.1021742602184,2110.682513232575,2119.1408860954193,2118.7400853149265,32.98302103257703,-2.735637571472763,4.483910259420209,-0.5379275389819347
85,0.8600000000000005,-2.7988484533586067,-0.19848332167080335,2.8059378106712787,0.6485205499333616,-0.16778154390117042,0.6441849098402436,0.36918322249851393,10.205830020148213,-4.9515047024272905,4.169344610578435,-2.797675586216419,4.532316791012911,-0.5340881366264669,21.68095974785622,22.729518465077092,-6.069209393302799,0.0,0.0,0.0,0.0,0.0,0.0,0.0,0.0,0.0,0.0,0.0,0.0,0.0,0.0,0.0,2130.0186765701214,2115.623034846453,2118.7599906528626,2128.4791345660956,2129.194332601762,2115.9602073718042,2122.068251898835,2126.733293729084,33.25882237875041,-2.774802512893328,4.439154497141604,-0.5556944683267933
86,0.8700000000000006,-2.695712201095842,-0.24683423729671164,2.847306960687381,0.6323958672338635,-0.18683596953515733,0.6530386008298374,0.3724357305893139,10.420641019686787,-4.716507675050625,4.102615714478582,-2.7588374715663124,4.518069870488478,-0.5562997549150471,21.241941522490038,24.057919921824045,-7.184010560934873,0.0,0.0,0.0,0.0,0.0,0.0,0.0,0.0,0.0,0.0,0.0,0.0,0.0,0.0,0.0,2134.6004247738356,2127.990500762038,2129.8242099402155,2136.6865721380655,2135.7109668106896,2126.811230772704,2131.934267449432,2136.4849172780173,33.63103562951056,-2.9352956164139035,4.264050204049747,-0.5733361271009121
87,0.8800000000000006,-2.5904515196290383,-0.2927697775870902,2.8879519600020354,0.6159565155353578,-0.20571883026916443,0.6613790278964274,0.37530669498558644,10.630569646552104,-4.468526495498012,4.024434455028092,-2.756023673298823,4.487223652111676,-0.5777630313821848,20.715032601582806,25.329678132068878,-8.34867624227087,0.0,0.0,0.0,0.0,0.0,0.0,0.0,0.0,0.0,0.0,0.0,0.0,0.0,0.0,0.0,2146.5607776525494,2133.1042766956166,2141.3386671915387,2143.709242359832,2145.5350699860005,2134.110987620854,2142.729313757606,2144.1545566170817,33.80160925223757,-3.0408041910018784,4.108395889501809,-0.5869801168384158
88,0.8900000000000006,-2.4831180555513104,-0.3361609027719116,2.927756176367258,0.5993048283214183,-0.22450974179430375,0.6689703534007414,0.3780314336943129,10.83512470446592,-4.20760598717356,3.9344170324952725,-2.8271157479546645,4.388118519661589,-0.5987904820800855,20.15065246604486,26.619924801955186,-9.540769211054734,0.0,0.0,0.0,0.0,0.0,0.0,0.0,0.0,0.0,0.0,0.0,0.0,0.0,0.0,0.0,2168.710428618843,2133.7749361568367,2154.920291412978,2154.3544277260953,2163.5433248932286,2139.3568578302816,2156.2903463793664,2155.0882027453017,33.90856511764183,-3.2731226192673186,3.7521095850198174,-0.6042319078272618
89,0.9000000000000006,-2.3737726914552577,-0.3768832084799122,2.9666002969309173,0.5825644105450785,-0.24324166050121546,0.6755921203652443,0.380824748491048,11.032611064237253,-3.9350565605996404,3.832413981265774,-2.9115434480946916,4.2652533560627015,-0.6193092567581282,19.368416507678177,27.719867920504182,-10.737020796038,0.0,0.0,0.0,0.0,0.0,0.0,0.0,0.0,0.0,0.0,0.0,0.0,0.0,0.0,0.0,2177.809408348026,2134.9106630068936,2160.5609057123966,2161.462693379533,2172.297657185901,2140.225422831926,2162.159460590782,2161.360238205423,34.0318086830386,-3.289464528313027,3.5509965406436006,-0.6150292103941739
90,0.9100000000000006,-2.2624947798988595,-0.41482775849146425,3.0043650028011473,0.5659321831337814,-0.2618810268552073,0.6809845486928546,0.38392595159520493,11.22141585606276,-3.6522188223997856,3.718602135637982,-3.0646721218655584,4.031139114426475,-0.6393127306107528,18.446684826818327,28.71129919730686,-11.89582832245284,0.0,0.0,0.0,0.0,0.0,0.0,0.0,0.0,0.0,0.0,0.0,0.0,0.0,0.0,0.0,2193.4116753844887,2125.3652817092425,2162.2004901747823,2167.4139423283686,2182.7165441381935,2136.006805230946,2164.656176905184,2166.181039206214,33.997516055287775,-3.085634875026482,3.3039828518055154,-0.6258841664236889
91,0.9200000000000006,-2.149376490796832,-0.44989491152983213,3.040934794964791,0.5495752640539542,-0.2803327759801117,0.685038393604281,0.3874312366593296,11.400546469886253,-3.35965702243634,3.5935312745141665,-3.1523507570372784,3.818309401157039,-0.6583695100196516,17.4422832380543,29.659452110817774,-12.994882056996282,0.0,0.0,0.0,0.0,0.0,0.0,0.0,0.0,0.0,0.0,0.0,0.0,0.0,0.0,0.0,2192.1075903406963,2133.248109705369,2162.326822495242,2176.559618116392,2185.484665747435,2139.6093535452596,2166.3015250582325,2173.86842201372,33.561997863361185,-3.0025760240275403,2.9310294763130917,-0.6372355785779602
92,0.9300000000000006,-2.034520825340801,-0.48199404639502014,3.0762004536176852,0.5336467983388201,-0.29830427809739873,0.6879890646241411,0.39103286210894844,11.56868511001847,-3.0589339582895034,3.4579008485001954,-3.1083734640616894,3.5876606451923685,-0.675642191052512,16.300659108999582,30.402497514379956,-14.018075861785828,0.0,0.0,0.0,0.0,0.0,0.0,0.0,0.0,0.0,0.0,0.0,0.0,0.0,0.0,0.0,2180.695370557494,2141.9330142098993,2150.314981853068,2187.9379590294047,2177.383352544233,2144.4518366294715,2158.56180659243,2180.564123110424,32.956713248518994,-2.887440977830366,2.6501624987846615,-0.643759094324886
93,0.9400000000000006,-1.9180467826551717,-0.5110604525331973,3.1100615746445555,0.5184361443548524,-0.3154997096709957,0.6899202519998935,0.3945807183636773,11.723932050798682,-2.75377057685393,3.312846441783033,-3.051500778463735,3.289047760833862,-0.6905330793300902,14.958378866765543,30.70966102821382,-14.904370477265783,0.0,0.0,0.0,0.0,0.0,0.0,0.0,0.0,0.0,0.0,0.0,0.0,0.0,0.0,0.0,2169.2954229002817,2125.8282335640747,2130.56433390339,2181.8190470923764,2162.609595930715,2130.6667509385234,2139.4037982430605,2172.5579352884515,33.310110318115306,-2.8400843103480082,2.241836268667176,-0.6535842593633582
94,0.9500000000000006,-1.8000892314579446,-0.5370666125393837,3.142430960222004,0.5041108543195456,-0.3318165131124976,0.6908549304032909,0.39810741429989155,11.865315533632295,-2.447290816831811,3.1597833595609397,-2.9679395428610102,3.0019384459534653,-0.7027776343929735,13.562471386730834,30.751981691355734,-15.648227992870911,0.0,0.0,0.0,0.0,0.0,0.0,0.0,0.0,0.0,0.0,0.0,0.0,0.0,0.0,0.0,2147.5256696475167,2108.021062127382,2109.593136883407,2165.6220925464563,2141.889587184265,2111.2435839900672,2117.9832838138454,2156.1292028162816,33.82866783051861,-2.6276777721434446,2.0315660566363607,-0.6587854544142628
95,0.9600000000000006,-1.6807757535625758,-0.5599849431184528,3.1732301967640124,0.49079771846648435,-0.34719899630070183,0.6908059547923684,0.40169340216050736,11.995708144103057,-2.1351908979789784,2.998761157001422,-2.9029220697894837,2.6555319517718057,-0.7126152412860384,12.572100972946032,31.491379371398676,-16.4402447837122,0.0,0.0,0.0,0.0,0.0,0.0,0.0,0.0,0.0,0.0,0.0,0.0,0.0,0.0,0.0,2161.789381197979,2113.3169108708107,2117.051633194656,2178.061273688728,2155.097625268912,2120.8206782541256,2127.7919431541445,2169.0793469122364,34.073842486379974,-2.2883660459954602,1.806834939615085,-0.6666782430324394
96,0.9700000000000006,-1.56020563879952,-0.5797411727824321,3.202380150454629,0.47855712236691456,-0.3616049520805256,0.6898966988299519,0.40529925265940686,12.116753831485594,-1.8147409996155142,2.8300134548285056,-2.769718702928865,2.3771721439211646,-0.7201026798949621,11.660138301163414,32.33839363591673,-17.18559310894152,0.0,0.0,0.0,0.0,0.0,0.0,0.0,0.0,0.0,0.0,0.0,0.0,0.0,0.0,0.0,2168.748383191298,2138.724271820313,2132.2178305499074,2195.917049217773,2167.276637227214,2141.5682462431773,2143.233857188119,2187.2187506176033,34.26969827430168,-2.0550172941700695,1.4649998875333388,-0.6731996890935396
97,0.9800000000000006,-1.4384731821974823,-0.5962586108715071,3.2298081886998085,0.467412419036882,-0.37493833405765686,0.6884638619239707,0.40861275923408347,12.228094043935704,-1.4879092610847995,2.654576285827019,-2.5445362260632214,2.120757343289751,-0.725524589948518,10.683048733760359,32.874430508738506,-17.807019619993092,0.0,0.0,0.0,0.0,0.0,0.0,0.0,0.0,0.0,0.0,0.0,0.0,0.0,0.0,0.0,2166.86897089317,2157.466770506406,2134.7436231939664,2209.2855026832985,2168.027057972504,2156.952430644156,2147.5073582435393,2198.0563244434184,34.276207633527285,-1.8464665759229275,1.2265826369149688,-0.6725464576386179
98,0.9900000000000007,-1.3156757347100265,-0.6094843244748807,3.255452567636469,0.4575232428097894,-0.3870816687725111,0.6866426495126441,0.4115363117142383,12.3298299836118,-1.156624554123028,2.473434934161274,-2.3194821017470018,1.821671370655866,-0.7289908311818393,9.747753327070896,33.26521017113348,-18.335961829244685,0.0,0.0,0.0,0.0,0.0,0.0,0.0,0.0,0.0,0.0,0.0,0.0,0.0,0.0,0.0,2174.747671400105,2162.6691664375794,2137.6470325486675,2218.441850381107,2173.3733250568775,2164.59529650402,2150.930609348038,2206.476118891209,34.124136423285584,-1.7834977242193173,0.8803343615355453,-0.6768490922105025
99,1.0000000000000007,-1.1919079196742182,-0.6193840037510916,3.27926203599704,0.4489367919459151,-0.3980526559267946,0.6844650842371853,0.4141465784080777,12.422215723852473,-0.8230786969296722,2.287804217256315,-2.1022755299964344,1.5532817142132767,-0.7303701920721528,8.83352731690934,33.41103247751431,-18.734006662791458,0.0,0.0,0.0,0.0,0.0,0.0,0.0,0.0,0.0,0.0,0.0,0.0,0.0,0.0,0.0,2173.9360305146106,2164.0574514107275,2140.5591764336314,2217.101460653149,2173.0301670178537,2164.9553291038937,2151.912052967869,2206.3175933771813,34.24082416703835,-1.638856534286398,0.7895435165729776,-0.6755507783320847
100,1.0100000000000007,-1.0672617063576837,-0.6259465746398823,3.301198175274521,0.4416164689008368,-0.4079467768573187,0.6818881824793736,0.4166327258416674,12.50557804966649,-0.4895159098014808,2.098984924768366,-1.9570813122627235,1.2452563226602649,-0.7302717788116317,7.954404126836678,33.348070402323295,-18.998368259451226,0.0,0.0,0.0,0.0,0.0,0.0,0.0,0.0,0.0,0.0,0.0,0.0,0.0,0.0,0.0,2176.9511405799135,2152.440649405024,2138.997514693348,2209.017288349499,2172.224118965879,2156.8281546335993,2148.928556811717,2198.956291323825,34.15701671695813,-1.4099038092787233,0.7982105601416635,-0.675927147668223
101,1.0200000000000007,-0.9418225570663108,-0.6291709073999537,3.3212328648543945,0.43539137545247675,-0.4169292193626516,0.6789500970804405,0.4190836931899295,12.58100792263111,-0.15517064506876876,1.9075564344080127,-1.8102260271959638,1.0434800638599313,-0.7289994291784858,7.207654968636845,33.468540264624565,-19.2427230553569,0.0,0.0,0.0,0.0,0.0,0.0,0.0,0.0,0.0,0.0,0.0,0.0,0.0,0.0,0.0,2174.2038213081796,2161.86539512252,2149.089037755813,2205.8103374794637,2173.9574028413813,2162.5121649622583,2156.6296142653136,2198.757625737475,34.19866591541335,-1.2805341162024546,0.7149237863551304,-0.6747040737654447
102,1.0300000000000007,-0.8156664952478382,-0.6290513140974145,3.339343478918568,0.4299709691621839,-0.4251773268636822,0.6759450282791091,0.4212452078582503,12.649007690178822,0.17895362842485926,1.7143148891148627,-1.626286064464648,0.9377722027317996,-0.7270210603848148,6.4834498549863895,33.381385620430834,-19.392985482501235,0.0,0.0,0.0,0.0,0.0,0.0,0.0,0.0,0.0,0.0,0.0,0.0,0.0,0.0,0.0,2161.536156763742,2170.1336948400826,2150.8472012896345,2199.066132213454,2164.814335379213,2166.748544422191,2157.0196127277986,2192.7041947610574,34.514546001780886,-1.2220038670196458,0.6767373140716009,-0.6662312122003523
103,1.0400000000000007,-0.6888646050065225,-0.6255927633408889,3.355513823181903,0.4252066817113892,-0.43279421766312454,0.673020273010094,0.42300372941946013,12.71031894609627,0.5127007440923544,1.5195031256829665,-1.4693783866876924,0.8384242863155712,-0.7245922538234405,5.850024697918954,33.35318395206433,-19.54600828231645,0.0,0.0,0.0,0.0,0.0,0.0,0.0,0.0,0.0,0.0,0.0,0.0,0.0,0.0,0.0,2162.909955667023,2171.271760932835,2155.080958417696,2196.9887576288384,2164.536401167684,2169.882672632736,2160.7374394843728,2191.457396104784,34.55204660053103,-1.264120481226254,0.4663702274611454,-0.6644955060077795
104,1.0500000000000007,-0.5614786534466225,-0.6187916145727794,3.369726700888336,0.4209727591258188,-0.4399016285363717,0.6701511553496668,0.42445956493940634,12.765979090196021,0.8477815883671481,1.322748320085509,-1.356988127811233,0.7684730295442401,-0.7213864694834637,5.320086531220625,33.5398053022592,-19.751426906858825,0.0,0.0,0.0,0.0,0.0,0.0,0.0,0.0,0.0,0.0,0.0,0.0,0.0,0.0,0.0,2173.7843145265088,2178.6718180173507,2170.749985378419,2201.4745927273657,2175.149328808177,2178.3741462211306,2174.792942274662,2198.3665107693673,34.720760865873864,-1.225386941367175,0.4395237777035684,-0.6582977302283877
105,1.0600000000000007,-0.433563328838092,-0.6086375150558543,3.3819642174434477,0.41721859848036486,-0.44658141662487194,0.6671826201559516,0.4258650382095738,12.816178596584118,1.1829170837471674,1.1245877151592165,-1.3150078704989603,0.6294058473336253,-0.7177563721088082,4.7755249780756515,33.47458259801472,-19.856452484823926,0.0,0.0,0.0,0.0,0.0,0.0,0.0,0.0,0.0,0.0,0.0,0.0,0.0,0.0,0.0,2185.0782332272624,2170.77785651885,2173.8520179809443,2201.3044551684116,2181.850108188701,2174.375431533852,2177.7468037649537,2197.465572187521,34.55378717392123,-1.1129971711071178,0.6203538677741542,-0.6538987721527991
106,1.0700000000000007,-0.3051721974503677,-0.595132498194627,3.392214755806609,0.4138881143955023,-0.45289908390077094,0.6640340383316461,0.4273614915980894,12.86120834829691,1.518102991291013,0.9253636922709985,-1.2725033513331683,0.5475909788561356,-0.7137141993740085,4.2742873072079135,33.50362368741022,-19.95727386483348,0.0,0.0,0.0,0.0,0.0,0.0,0.0,0.0,0.0,0.0,0.0,0.0,0.0,0.0,0.0,2187.6279701255567,2178.1980247871156,2182.4570203276035,2203.3842665648467,2187.331033903656,2179.1723312649274,2185.133186573751,2201.1055314299024,34.32428327626006,-1.0289966917442543,0.7560625193499578,-0.6480899787162815
107,1.0800000000000007,-0.17635687685052587,-0.5782829008557111,3.4004709653271794,0.4107188280887183,-0.45901486628506377,0.6609377523550337,0.4286918290504393,12.900984666749146,1.8513798892508642,0.7258601133740543,-1.1980795520737348,0.5894679289513365,-0.7094663999639371,3.747098545723304,33.22601582820028,-19.962068096547323,0.0,0.0,0.0,0.0,0.0,0.0,0.0,0.0,0.0,0.0,0.0,0.0,0.0,0.0,0.0,2171.806775395298,2184.376588088555,2183.6255665544586,2192.799643602198,2175.811569314647,2180.1101372692156,2183.4117173585114,2192.3621317507123,34.06421667288932,-0.9052353585421822,0.710956006629279,-0.6347976304988848
108,1.0900000000000007,-0.04716989347982538,-0.5581169120385573,3.406732163977737,0.40748322840304874,-0.46506879533615814,0.658108254176642,0.4296067503652332,12.935573893087916,2.1812450587482255,0.5263527282540701,-1.1202382079759856,0.6709360631213754,-0.7051717344400993,3.2383067278018984,32.856647143478575,-19.968225855952703,0.0,0.0,0.0,0.0,0.0,0.0,0.0,0.0,0.0,0.0,0.0,0.0,0.0,0.0,0.0,2160.109754399641,2181.4724165654925,2179.997573049605,2182.450113686291,2164.219232722273,2176.858800570358,2179.1220606795814,2182.439505383681,33.83512342280868,-0.8371410791571501,0.4712361955941318,-0.6316189813688419
109,1.1000000000000008,0.08233805226125265,-0.5346720483838955,3.4109977761709405,0.40425348422655266,-0.4710116176385255,0.6555486594994607,0.4300966537520283,12.965229831499052,2.5070760756951187,0.32672494880216973,-1.0209738194083084,0.6897979499591124,-0.7002729296023879,2.7602182044521584,32.43583164131669,-19.98483390682393,0.0,0.0,0.0,0.0,0.0,0.0,0.0,0.0,0.0,0.0,0.0,0.0,0.0,0.0,0.0,2153.0649703098647,2170.618023592935,2167.4259497302064,2180.1042609179162,2155.328569060344,2167.6766699538925,2169.544178459719,2177.0460243025304,34.057049698264954,-0.8594588090743688,0.38732526313248233,-0.6267665017996084
110,1.1100000000000008,0.21211959088573332,-0.5079895560565627,3.4132660668262838,0.4013503341820426,-0.4766355148758328,0.653079752933076,0.4303758026653974,12.990369345396857,2.828786273401046,0.12689710186266998,-0.9371789462874334,0.5867185760376793,-0.6950720499267992,2.328706793289115,32.02543650077638,-19.998878045139694,0.0,0.0,0.0,0.0,0.0,0.0,0.0,0.0,0.0,0.0,0.0,0.0,0.0,0.0,0.0,2155.1455542118674,2154.101012791512,2152.4947186752865,2180.024542408895,2153.3220732718064,2155.4201585759374,2157.372380390662,2174.2707467644527,33.53977804926709,-0.8314606427666995,0.6225555761191937,-0.6239316838636026
111,1.1200000000000008,0.3421331240676971,-0.4780988816527897,3.413532176065042,0.3988784712365807,-0.4818923109902631,0.6505279120979548,0.43068457294626616,13.011750590933019,3.149291553381352,-0.07385347248804618,-0.9020797327923419,0.4980622775222678,-0.6896976220300989,1.9781387582646914,32.01173610633656,-20.11384182957282,0.0,0.0,0.0,0.0,0.0,0.0,0.0,0.0,0.0,0.0,0.0,0.0,0.0,0.0,0.0,2165.7640120043493,2156.3586290868056,2162.331818318412,2182.8889859154892,2164.3710580282914,2158.6415286944284,2165.038931734323,2180.6265904746074,32.65950758173006,-0.7420024867460188,0.9231247531340814,-0.6190458415985804
112,1.1300000000000008,0.4723412789852625,-0.44502234407845065,3.4117914420209643,0.3964962962006124,-0.48702262869623175,0.6480127890962957,0.4309049447437896,13.029223470856683,3.4650148186759484,-0.27415915076122416,-0.8684058797447727,0.5644009490590254,-0.6844457691131847,1.5767927565395468,31.35743015779857,-20.014473251054877,0.0,0.0,0.0,0.0,0.0,0.0,0.0,0.0,0.0,0.0,0.0,0.0,0.0,0.0,0.0,2140.9491648258095,2150.6680250495538,2157.315700609152,2156.7649481471376,2143.8214065203624,2146.506182816339,2154.4188588194315,2157.878818447599,32.62174290835813,-0.6465204662353925,0.9052303608228824,-0.6046058759578924
113,1.1400000000000008,0.6027035212859266,-0.40883204014200336,3.408055641458477,0.39380670915901395,-0.49228761200436466,0.6458251723579512,0.4306727639835268,13.042556761936726,3.7715101817595573,-0.4727557075474182,-0.8086758754348438,0.7365818613607902,-0.6793984496407027,1.1638293582922898,30.33362468540224,-19.830333623122755,0.0,0.0,0.0,0.0,0.0,0.0,0.0,0.0,0.0,0.0,0.0,0.0,0.0,0.0,0.0,2102.418726538188,2133.3999938409447,2136.15869610635,2122.4162811178567,2108.0794902337466,2125.279019721626,2131.3042914590756,2124.281605010117,32.88804608937826,-0.6089154592779163,0.7706010001620942,-0.6030198499681235
114,1.1500000000000008,0.7331809328323292,-0.36960701769685517,3.4023350626259123,0.39085120957656355,-0.49765244115518303,0.6440181190237234,0.4299046896161633,13.052395480269416,4.073003448720388,-0.6715383999061767,-0.7332075196623189,0.812570505376045,-0.6738797428316012,0.8430660503258025,30.024523196404473,-19.93077207637095,0.0,0.0,0.0,0.0,0.0,0.0,0.0,0.0,0.0,0.0,0.0,0.0,0.0,0.0,0.0,2102.7643986130824,2126.540304010717,2128.059580844814,2127.1282971921983,2106.018357851963,2123.2311545001526,2128.7053166373853,2126.0757750459393,33.18796570262084,-0.6751530645908767,0.5516488428735218,-0.6012932677836865
115,1.1600000000000008,0.8637418762303414,-0.3273737144941968,3.39461815237372,0.38794721939426274,-0.5029059297517933,0.6423961242459698,0.42884705937956596,13.059335328258621,4.373588778628946,-0.8721913396109746,-0.6757274485172088,0.7917351526411261,-0.6683098857178257,0.5694658392840779,30.010567466544735,-20.148581716305515,0.0,0.0,0.0,0.0,0.0,0.0,0.0,0.0,0.0,0.0,0.0,0.0,0.0,0.0,0.0,2119.968562162803,2126.2776163649637,2129.7671394587105,2140.9327406560765,2120.280970657709,2127.059877980685,2132.7653860633272,2138.5146454099,32.84839867772322,-0.766987953090517,0.7666949647669508,-0.6035747851702454
116,1.1700000000000008,0.9943589420837675,-0.28213403836428846,3.3848835238903376,0.3853109983066358,-0.507918351719713,0.640692855085302,0.4278633520330032,13.06364676029117,4.674337227991965,-1.0750720522538033,-0.6750139249293396,0.679358008906985,-0.6629406446818967,0.31285701750682904,30.03842318104244,-20.364719443836997,0.0,0.0,0.0,0.0,0.0,0.0,0.0,0.0,0.0,0.0,0.0,0.0,0.0,0.0,0.0,2141.3214864381716,2124.816747100391,2136.7180529464445,2152.4704460458156,2137.829521563151,2129.605232432003,2140.0081734804007,2149.926330650523,32.28614976517444,-0.702254388803902,1.2246033209323095,-0.6037325042727557
117,1.1800000000000008,1.1250053390012622,-0.2339017476466287,3.373115633652884,0.3827013188171101,-0.5128673085656765,0.6388730638718801,0.4270222858811943,13.06515038658647,4.9712923360410795,-1.2785283060539112,-0.7150903591141938,0.7286716177423875,-0.658194638666965,0.021641433770369645,29.50755929352855,-20.365510930839825,0.0,0.0,0.0,0.0,0.0,0.0,0.0,0.0,0.0,0.0,0.0,0.0,0.0,0.0,0.0,2126.2549645080762,2121.2237994970073,2139.1178684664064,2128.8688975646132,2126.6769386737624,2120.053067536421,2134.8142047229835,2131.9535991483704,32.04973649339047,-0.5809779041451986,1.1592652080593704,-0.5890462058379389
118,1.1900000000000008,1.2556517849715505,-0.18273331412485805,3.3593152552891365,0.3795597928983445,-0.5181258341783237,0.6372842393106887,0.42585065680139456,13.06363647633267,5.261233570484228,-1.4815164795953693,-0.7048563704036915,0.967442889584628,-0.6541141880247552,-0.2837732993423714,28.742772778007186,-20.31828994075857,0.0,0.0,0.0,0.0,0.0,0.0,0.0,0.0,0.0,0.0,0.0,0.0,0.0,0.0,0.0,2090.9724320867617,2121.2518546830647,2131.420192947352,2099.88699383931,2098.44651908485,2112.3830992522935,2123.839178028012,2105.6004859162813,31.988943934635166,-0.4854824953397991,1.0836189888565344,-0.5898349377232517
119,1.2000000000000008,1.3862683763399481,-0.12869583154837158,3.34348325921685,0.3759636605289473,-0.5236285166205903,0.6360630411536161,0.42413242062097517,13.059219291257842,5.545478631041208,-1.6850712969679933,-0.6451336181573045,1.0511536768914642,-0.6496669935860253,-0.5639612230847746,28.240425775217126,-20.418272057534768,0.0,0.0,0.0,0.0,0.0,0.0,0.0,0.0,0.0,0.0,0.0,0.0,0.0,0.0,0.0,2085.430484097413,2108.6585053977524,2112.013540069202,2104.832707028926,2088.2740756135036,2105.1241048896472,2112.507264157878,2103.4142725400197,32.42985053055246,-0.5795326607690873,0.6535038898012129,-0.5936869958439884
120,1.2100000000000009,1.5168274442584289,-0.07183633864795881,3.325608555924409,0.37236335150748445,-0.529066843629829,0.6350606206094883,0.42205665209397547,13.052182577594287,5.825855191982221,-1.8901670132058623,-0.5703697614674702,1.065767715101424,-0.6452068159361716,-0.8128214876634843,27.892305081580915,-20.592888433373258,0.0,0.0,0.0,0.0,0.0,0.0,0.0,0.0,0.0,0.0,0.0,0.0,0.0,0.0,0.0,2088.437117876579,2101.948078453833,2101.3737011373296,2110.0486148268133,2089.956131406706,2100.4381052791264,2103.78163908578,2107.198575335701,32.073766322484076,-0.7894326632541875,0.6966855767337808,-0.6069173774610553
121,1.2200000000000009,1.6473045151862082,-0.012177799787240713,3.3056692907117347,0.3691327731309319,-0.5342004564671632,0.6339427040111844,0.4201041729641953,13.042867408247204,6.105947134108341,-2.0981981032069585,-0.5744197688380511,0.8685330932297728,-0.641187975552426,-1.03057678893137,27.988261992549113,-20.91858003052316,0.0,0.0,0.0,0.0,0.0,0.0,0.0,0.0,0.0,0.0,0.0,0.0,0.0,0.0,0.0,2123.1911505948424,2095.7518966347134,2105.8880470267595,2131.156674955854,2116.6765637018734,2104.0866815677664,2112.052658455667,2126.23814503815,31.414607451123715,-0.7709839932563913,1.1745761226663283,-0.6173782016985796
122,1.2300000000000009,1.7776771873289545,0.05026751702350496,3.2836421448936006,0.3661765518596686,-0.5391097660638273,0.6324490967296323,0.4186687629243924,13.031274234747526,6.382246687983272,-2.307273789527278,-0.6710089599292001,0.7965346775890688,-0.6385002504723637,-1.2661300252130303,27.432674262871437,-20.93247748534166,0.0,0.0,0.0,0.0,0.0,0.0,0.0,0.0,0.0,0.0,0.0,0.0,0.0,0.0,0.0,2116.4661709964,2084.6113673930413,2107.7023824947782,2105.701169343043,2111.5461685384576,2088.8060093375375,2104.7148236081193,2107.4078587729423,31.19110728889893,-0.6582939476649579,0.9595816444193082,-0.6011684332604214
123,1.2400000000000009,1.90792176847972,0.11543929116590962,3.259527559937717,0.3628260786576396,-0.5442445029747401,0.6308942914660215,0.4172859338910013,13.017223594581946,6.6508261448231805,-2.51552677112748,-0.7109194292078462,0.9835558147032901,-0.6372634815770609,-1.5179410014276584,26.5840470104175,-20.827516405367064,0.0,0.0,0.0,0.0,0.0,0.0,0.0,0.0,0.0,0.0,0.0,0.0,0.0,0.0,0.0,2074.3729899227615,2086.5983517445247,2100.123573432428,2068.4962671518006,2079.7078116680545,2079.403736517062,2091.7972918109444,2074.704903702859,31.19394037213842,-0.514130842929044,0.9056158382525972,-0.6027627190907229
124,1.2500000000000009,2.0380133147125474,0.18326503110038195,3.233330568864975,0.35916885113500746,-0.5495416896984161,0.6294591886952399,0.4156715018195248,13.00067834106412,6.91356514330587,-2.7240065337269135,-0.6829453023649588,0.9648575745867568,-0.6355821482685785,-1.7633552649574114,26.096800095762873,-20.89525366257261,0.0,0.0,0.0,0.0,0.0,0.0,0.0,0.0,0.0,0.0,0.0,0.0,0.0,0.0,0.0,2069.464361116006,2072.9139251886695,2076.8905923989937,2078.28093939295,2068.9698826700405,2072.5519973689866,2079.584560949728,2074.86196605999,31.790634288110578,-0.6438673582643701,0.1631763299436243,-0.6142895049162618
125,1.260000000000001,2.1679275002678575,0.25370010531770965,3.2050428779061484,0.3557114328317595,-0.5546642488165955,0.6280767771664806,0.41392814548139356,12.981788026244129,7.172991930782419,-2.9337833242545472,-0.6035221527660366,0.9395148477385039,-0.6335840341180651,-1.987254935645666,25.819377910550223,-21.045295689821497,0.0,0.0,0.0,0.0,0.0,0.0,0.0,0.0,0.0,0.0,0.0,0.0,0.0,0.0,0.0,2067.759858536686,2074.5339572622515,2068.615183247912,2085.437474421268,2069.296309404134,2073.087165072313,2072.313078037925,2081.642616059946,31.434711808077264,-0.9186431265961155,-0.3159896893702829,-0.6439234457238845
126,1.270000000000001,2.297641842726884,0.32673020380694373,3.174643922239946,0.3529583628742216,-0.559284593709969,0.6263829844753924,0.41263239581439143,12.96072709382385,7.433368783344392,-3.146514743782502,-0.6232174072393605,0.5680808721051525,-0.6321255391068853,-2.200111605645816,26.068616211444073,-21.375002581644154,0.0,0.0,0.0,0.0,0.0,0.0,0.0,0.0,0.0,0.0,0.0,0.0,0.0,0.0,0.0,2117.303962442753,2064.258038593749,2070.8062757037,2117.9991660714363,2105.4506116536104,2078.80880592324,2081.998479960791,2108.900445090752,30.692355525251024,-1.0480242718772612,-0.24054635459475898,-0.6686748236137005
127,1.280000000000001,2.427135399781479,0.4023548933077932,3.142113146757534,0.3512075318301521,-0.563212502861661,0.6238163709626425,0.41267188119021964,12.93764532164453,7.690819765987641,-3.3594484712769446,-0.7581329095699,0.16002795473152295,-0.6326161769478443,-2.401990695593881,25.581132932073203,-21.250338502385446,0.0,0.0,0.0,0.0,0.0,0.0,0.0,0.0,0.0,0.0,0.0,0.0,0.0,0.0,0.0,2125.6588959309547,2040.233852534357,2061.347141301614,2101.727870296505,2110.2524027610816,2055.67055505917,2066.670098199445,2095.2658518579087,30.506096712875653,-1.2475983062117764,-0.8517199502034751,-0.649176775003064
128,1.290000000000001,2.55638804297816,0.4805199269394965,3.1074660098713696,0.34998419242461326,-0.5667643429524903,0.6204357820414563,0.41394285230346667,12.912529013789246,7.940976287345258,-3.5694202508653414,-0.8873623833515636,-0.014033363968728061,-0.6353044347181561,-2.611375401096794,24.771483546014217,-20.880743783461053,0.0,0.0,0.0,0.0,0.0,0.0,0.0,0.0,0.0,0.0,0.0,0.0,0.0,0.0,0.0,2089.676043518116,2033.28540376239,2050.4962754341086,2060.353147820704,2082.916222792929,2037.8657774502433,2048.1891432382845,2060.1436969676706,30.511300614896275,-1.2799339459215744,-1.1446962544972106,-0.6481698294245961
129,1.300000000000001,2.685378223831832,0.5611596995174835,3.0707327107628295,0.34922049510886183,-0.569973572984774,0.6162273134146379,0.4164601662784446,12.885086640043383,8.186533746691174,-3.776881823979933,-1.0512551196850557,-0.4099734663685919,-0.63662871731368,-2.860721791160259,24.46337723834624,-20.654227677656234,0.0,0.0,0.0,0.0,0.0,0.0,0.0,0.0,0.0,0.0,0.0,0.0,0.0,0.0,0.0,2094.638107390967,2009.6304610655843,2035.4246343091763,2064.687376454832,2079.2582781193328,2024.949889431535,2041.5355014469667,2058.241542813715,30.945650501788567,-1.5975264927798896,-2.4483350170949123,-0.6662884520039738
130,1.310000000000001,2.814080716473221,0.644246789153521,3.0319351214081935,0.34918565835507126,-0.572634737114274,0.6110746767274422,0.4204123848219199,12.854937871711122,8.43079795604709,-3.9822589007582874,-1.1538946792706992,-0.7448325961634071,-0.6365931195199277,-3.1439425971875323,24.406217588895274,-20.431072976150766,0.0,0.0,0.0,0.0,0.0,0.0,0.0,0.0,0.0,0.0,0.0,0.0,0.0,0.0,0.0,2088.444261936426,2015.550948104884,2031.6666121241713,2068.48862904125,2078.5018879778736,2025.87702813106,2037.7467629927885,2062.540521126944,29.49011909872515,-1.5783584918966866,-4.461931047952714,-0.7036692922769239
131,1.320000000000001,2.942466535807369,0.7297842217550351,2.9910927102013805,0.350439939580955,-0.5743167025711182,0.6045599519519786,0.4264498075860225,12.821662755008388,8.67732983218065,-4.185873283521742,-1.3607394863305275,-1.550125394351106,-0.6357727420847743,-3.4794339731849533,24.78686622678339,-20.233331035142577,0.0,0.0,0.0,0.0,0.0,0.0,0.0,0.0,0.0,0.0,0.0,0.0,0.0,0.0,0.0,2139.5827046941386,1992.0990926378306,2020.1427917349677,2103.2409788857885,2112.439190100641,2023.9451429430426,2038.057318153717,2087.5825681610013,27.655408317619116,-1.4321484645899738,-5.658477720961423,-0.7392681258284632
132,1.330000000000001,3.0705058272370107,0.8177593804358742,2.9482489004755323,0.3545125068837236,-0.57385036248504,0.5957116604667472,0.4360553422706309,12.785790373580756,8.916260092053179,-4.381163529737229,-1.4620372628904457,-2.9199043803128513,-0.6353799455204977,-3.706882782912757,23.665285352516108,-19.107573864587835,0.0,0.0,0.0,0.0,0.0,0.0,0.0,0.0,0.0,0.0,0.0,0.0,0.0,0.0,0.0,2130.7439996574503,1911.4583233893468,1914.8320844423222,2103.560326338696,2091.0520464726865,1952.9572439041126,1951.8636660038633,2066.6906361798806,26.547289174319065,-1.6268979439087239,-6.313715886340932,-0.7186197421632053
133,1.340000000000001,3.1981768285546046,0.9080605069121525,2.9035164812509975,0.3622874152137457,-0.570417947263449,0.5842469222684544,0.44947383465262425,12.748140005458591,9.142035010319924,-4.562963905718987,-1.4566814524390654,-4.1814373825883955,-0.6349696415283065,-3.852798005038238,22.264620066156482,-17.60794652601394,0.0,0.0,0.0,0.0,0.0,0.0,0.0,0.0,0.0,0.0,0.0,0.0,0.0,0.0,0.0,2063.81936138764,1862.3481083636389,1834.034198210132,2050.3699659246367,2032.2690623631133,1891.6366136843794,1866.2930048212895,2015.934488129036,24.081156238124002,-1.4759786098110077,-6.1224225796228104,-0.7161554941085142
134,1.350000000000001,3.3254634981510915,1.0005688496392147,2.857036823935027,0.3730295130296266,-0.5642558464124333,0.5703720942423308,0.46598282834015003,12.708900243081315,9.358672082183952,-4.730675233169313,-1.5509103989758617,-5.156782824959576,-0.6306887433711168,-4.016174465895972,21.538211152892117,-16.18639865382665,0.0,0.0,0.0,0.0,0.0,0.0,0.0,0.0,0.0,0.0,0.0,0.0,0.0,0.0,0.0,2009.4007378112958,1834.3085467870426,1823.1197335349182,1986.3165066444517,1983.0265678905885,1859.3849633385619,1840.7050605494067,1966.2854744291878,21.443362985300396,-1.5400049814877292,-6.975800352149045,-0.7347819668320619
135,1.360000000000001,3.4523538503492897,1.0951728917042214,2.808961824139596,0.38536465806806636,-0.5561345667854852,0.5547342354680697,0.48422964793376627,12.669114311807315,9.559450321915733,-4.881546051291379,-1.527843699191893,-5.581040644462393,-0.6239569849259041,-4.022375181737203,19.634447854475212,-14.419477177320061,0.0,0.0,0.0,0.0,0.0,0.0,0.0,0.0,0.0,0.0,0.0,0.0,0.0,0.0,0.0,1873.616541591522,1798.1647374976792,1766.0320857571578,1867.1146392272597,1865.382405444833,1798.086064524178,1769.1090442660536,1855.0701091114784,25.580221551409547,-1.9179404182253124,-8.917723031668594,-0.749496984707664
136,1.370000000000001,3.578848227677767,1.1916807847856217,2.7594638511959992,0.3988391928159757,-0.5462084355823505,0.5375989263826971,0.5035583754886354,12.629817177059175,9.73912954399794,-5.015445494471791,-1.551995179038884,-6.238369504573147,-0.6175051190081914,-3.950331407130747,17.473175463546653,-12.757862943304055,0.0,0.0,0.0,0.0,0.0,0.0,0.0,0.0,0.0,0.0,0.0,0.0,0.0,0.0,0.0,1788.8014275819578,1683.9378006187708,1648.982873125453,1772.1262710958858,1764.946876698685,1699.8896025261927,1662.2236797559437,1749.591764102188,29.059382102132037,-2.1613820853100343,-9.999999999777755,-0.7673822025522853
137,1.380000000000001,3.704931529801343,1.2900548686448514,2.708678872558851,0.41412680356132586,-0.533472294893249,0.5177308266687112,0.5252248016519616,12.585685434422357,9.942046598151016,-5.140005480331109,-1.7399102850806256,-7.497195239648208,-0.6083054978812823,-4.6727998784117375,21.55857253557336,-11.92937639402647,0.0,0.0,0.0,0.0,0.0,0.0,0.0,0.0,0.0,0.0,0.0,0.0,0.0,0.0,0.0,1992.0159982599926,1767.0157213816633,1761.041499086887,1945.631358969416,1954.5894839639404,1828.5053286053524,1804.9045775209706,1920.7259901227808,29.66283246592838,-2.2944624824034254,-9.999999999999998,-0.7424928585722682
138,1.390000000000001,3.8305350887309713,1.390663028275605,2.656708417782113,0.43136500273473133,-0.5171465491247285,0.4940733179984417,0.5498865679265688,12.533751306452608,10.18552610490834,-5.251056490343554,-1.950339792141736,-8.644582736577108,-0.5956921784636444,-5.484712194302688,25.525546675593702,-10.210801636501898,0.0,0.0,0.0,0.0,0.0,0.0,0.0,0.0,0.0,0.0,0.0,0.0,0.0,0.0,0.0,2114.7407028273733,1901.2181705617372,1894.2637558135568,2060.407677500686,2087.8932678675365,1946.1440205118656,1925.0966604212756,2043.8064484386252,30.517028300577856,-2.030653512053152,-9.193624524112645,-0.7422041279448724
139,1.400000000000001,3.9555875512634526,1.4938265388751173,2.6037330127569707,0.4493944457048672,-0.4977956894716823,0.4670709671262224,0.5762714598006767,12.47590238199571,10.449000983635376,-5.33985063951332,-2.126677560355078,-9.247905635487609,-0.5775366625611453,-6.001174836280043,26.741517362729894,-7.732705325237177,0.0,0.0,0.0,0.0,0.0,0.0,0.0,0.0,0.0,0.0,0.0,0.0,0.0,0.0,0.0,2098.178690159302,1972.4928823792566,1959.7044155363665,2051.1214256061626,2086.3742844644316,1988.6204116463266,1966.4700825930247,2046.5147084147259,31.655404767499963,-2.0229697992742075,-9.406808576159987,-0.7620482728688964
140,1.410000000000001,4.080034494448154,1.5996834261562067,2.5500016331441526,0.4668159261996233,-0.47671078772194037,0.4382807081579337,0.6022787865868227,12.412558942187227,10.7240910794904,-5.4017082824592775,-2.1003440512828244,-9.196587535340397,-0.5579249289012638,-6.568216824561546,27.85699311378842,-4.913226716424468,0.0,0.0,0.0,0.0,0.0,0.0,0.0,0.0,0.0,0.0,0.0,0.0,0.0,0.0,0.0,2061.9598951052485,2070.8283173556815,2021.723532565385,2044.484444152735,2074.9631786237574,2062.235994230329,2017.7186297608523,2050.4913281768954,32.2430700500438,-2.511271957040279,-10.0,-0.7701552846329565
141,1.420000000000001,4.203817885947522,1.7083511095946118,2.495799840918013,0.48321877539992286,-0.4544121989948464,0.40857932540700437,0.6269546262335292,12.343115725503942,11.011106282194161,-5.433408994647413,-2.0893309870007353,-9.299459217612963,-0.5419536179214371,-7.191924364251534,29.000392366011596,-1.7671477660323731,0.0,0.0,0.0,0.0,0.0,0.0,0.0,0.0,0.0,0.0,0.0,0.0,0.0,0.0,0.0,2105.67407078059,2108.5734204903915,2052.6786042491817,2082.399800572551,2106.0431200589055,2113.0173914615107,2057.0290375024642,2080.9426610092487,32.27220315908974,-2.7528147271389853,-9.999999999999591,-0.7798456518844694
142,1.430000000000001,4.326877876901893,1.8199259684363291,2.441441475503525,0.4986654014718331,-0.43061173588107743,0.3771352298449493,0.6509035018389576,12.267950561751896,11.304342080774248,-5.432704571924084,-2.30738835560896,-9.627985266870038,-0.5257748011300178,-7.758919792173913,29.363328699451685,1.5668728588886793,0.0,0.0,0.0,0.0,0.0,0.0,0.0,0.0,0.0,0.0,0.0,0.0,0.0,0.0,0.0,2162.823426258423,2094.808917777241,2072.3134521204483,2099.0421042916137,2147.090655813976,2114.46130824196,2075.027164072441,2097.484176805277,33.336383546345395,-2.6883616962318517,-10.0,-0.7412612682289161
143,1.440000000000001,4.449159466526448,1.9344308037565672,2.3872571631681736,0.512823209932584,-0.40548494508444993,0.343466134241949,0.6742590965594703,12.187487566660307,11.595801703326147,-5.398520674267663,-2.527452179049695,-9.787422029776252,-0.5074732461598405,-8.285859557735975,28.896241081678653,4.945347567019809,0.0,0.0,0.0,0.0,0.0,0.0,0.0,0.0,0.0,0.0,0.0,0.0,0.0,0.0,0.0,2161.486726569887,2105.458486436846,2082.3900086718527,2087.7854308774827,2153.6649403274273,2114.7676831168105,2078.999862517211,2090.319985393965,34.24134838113291,-2.3259769458893604,-8.902043816085275,-0.7384620559860615
144,1.450000000000001,4.570603835869681,2.0518432572961185,2.3335988757344053,0.5254980506243371,-0.379267661726093,0.30811266610840515,0.6964728455169047,12.100175012250624,11.88637469350227,-5.326581417750427,-2.6166692473023123,-9.87883856129059,-0.4854517566087678,-9.033821414639931,28.83712295610863,8.914260267551377,0.0,0.0,0.0,0.0,0.0,0.0,0.0,0.0,0.0,0.0,0.0,0.0,0.0,0.0,0.0,2175.8054223078357,2153.8335967222347,2113.2757957291747,2126.3675834002925,2175.8828258754515,2157.8840669688343,2115.003876631469,2127.2169083139993,35.82548738425498,-2.4613132811825813,-8.27157099363729,-0.752928623259818
145,1.460000000000001,4.691138373693536,2.172145093408305,2.2808602485126115,0.5364818164206901,-0.35270283084042114,0.27259236915340973,0.7165761467188547,12.00558076259862,12.17277337105043,-5.214557851593617,-2.5001788048711946,-9.399726135353557,-0.4649761191088457,-9.743110102331087,28.196463488866286,12.90820794663805,0.0,0.0,0.0,0.0,0.0,0.0,0.0,0.0,0.0,0.0,0.0,0.0,0.0,0.0,0.0,2152.57975323387,2236.1361881166677,2161.5015940062317,2133.527003528191,2175.835918707773,2218.19280769744,2152.074119354573,2145.3113808074695,37.340037358913946,-3.0064778312824423,-9.040776124081285,-0.7463877191358167
146,1.470000000000001,4.810688181068634,2.2952842645328166,2.2294524131269333,0.5455535690390753,-0.3269383202382056,0.2380394723794462,0.7340434916664422,11.903087891439366,12.453746800302964,-5.060025519698569,-2.5051698928016894,-8.873025994617493,-0.45097060590293864,-10.556914260106964,27.57564496738496,17.2071342336384,0.0,0.0,0.0,0.0,0.0,0.0,0.0,0.0,0.0,0.0,0.0,0.0,0.0,0.0,0.0,2203.7263759512057,2287.2138105768013,2224.9013700143737,2162.9618296626822,2219.0915002592888,2278.083646530657,2212.7439847886376,2179.9104745928885,37.605167551950174,-3.2607840194583853,-9.640612400767019,-0.73357325061549
147,1.480000000000001,4.9291723898250615,2.4211902676326282,2.179803722885407,0.552910929994132,-0.30157988953014053,0.20311425678131878,0.7497223969018032,11.792420910933059,12.725216177734644,-4.862781584456858,-2.7533872348948036,-8.969978665753576,-0.43678004711186363,-11.388994590523893,26.38229663889291,21.46725431290708,0.0,0.0,0.0,0.0,0.0,0.0,0.0,0.0,0.0,0.0,0.0,0.0,0.0,0.0,0.0,2308.121979869895,2276.5765803352997,2252.377583456946,2229.0119496003795,2296.0630877757876,2294.6677888603344,2252.994546489011,2232.5664328946973,37.3237926162461,-3.2733287926481784,-9.319380278365037,-0.6819021931798331
148,1.490000000000001,5.04651482185851,2.5497176157601835,2.132317288370042,0.5588079776862609,-0.27543758258719986,0.16623660769082607,0.7643514717956376,11.675066619328486,12.975941321655387,-4.628889595529153,-2.996151630783329,-9.28069599739878,-0.4181486178620978,-11.996647249226555,23.85070584553972,24.86995511395751,0.0,0.0,0.0,0.0,0.0,0.0,0.0,0.0,0.0,0.0,0.0,0.0,0.0,0.0,0.0,2338.7987889022584,2266.054348055792,2243.740671281932,2256.9592616433724,2324.79836192645,2282.533761264268,2247.6470554951197,2253.315546136996,35.65215566932774,-3.2134044444975234,-8.413936572287904,-0.6612796057207116
149,1.500000000000001,5.1626572094051655,2.680606059526224,2.0873240992382454,0.5631815909598482,-0.24855665544978703,0.12781739754367621,0.7776302447312038,11.552625559867641,13.196192210817147,-4.365149267680818,-3.133371234756848,-9.279589757637282,-0.39373729178436556,-12.461632411204349,20.519000007332977,27.6209794136264,0.0,0.0,0.0,0.0,0.0,0.0,0.0,0.0,0.0,0.0,0.0,0.0,0.0,0.0,0.0,2304.7492732449637,2281.1271215622533,2247.5444741503516,2242.439390565555,2304.6682862398457,2281.239913512313,2242.7163686763315,2245.7635849140415,22.920575875292382,-3.088389253613097,-7.472086404622596,-0.6732169636224296
150,1.5100000000000011,5.277562391823605,2.813506721252997,2.045064387525053,0.5658832681390947,-0.2221699817025839,0.08938199242053994,0.7889407363683445,11.4281696657031,13.377213441647955,-4.084615760138772,-3.181695433822394,-8.857375482754072,-0.36848992546924475,-12.556537142176083,16.372721993445083,28.777599582285873,0.0,0.0,0.0,0.0,0.0,0.0,0.0,0.0,0.0,0.0,0.0,0.0,0.0,0.0,0.0,2220.162676705692,2268.287526516224,2219.7400103588952,2169.4738892907258,2231.2875112798074,2253.7889564338493,2203.7228113895803,2179.9221642338293,10.804908005078772,-3.323439213519287,-7.704457006547787,-0.6578571863206393
151,1.5200000000000011,5.39129942871169,2.9479011212779627,2.0053702537976403,0.567002871567635,-0.19750079758797703,0.05233265485831712,0.7979739794138961,11.3229211715831,13.490946085868428,-3.866803092384855,-3.1495555565878712,-8.195471042719856,-0.34890104761511187,-9.908169275913536,9.097853947489298,19.703462494935042,0.0,0.0,0.0,0.0,0.0,0.0,0.0,0.0,0.0,0.0,0.0,0.0,0.0,0.0,0.0,1774.8258932736085,1888.7505252469234,1808.9782973771246,1718.6695785861075,1774.6343557661621,1849.9519413700164,1770.9739187846608,1713.3570803719279,11.206262133908487,-3.806031929433515,-8.651143782702299,-0.6497111280541621
152,1.5300000000000011,5.504122305623267,3.08311652338815,1.9673702540338334,0.5667852941477136,-0.17423762819875596,0.016269274524995145,0.8050658295841354,11.245463887664892,13.544556811598255,-3.7467722832709356,-3.247322938529673,-7.98369441387956,-0.3328125944583894,-7.107260927927683,3.7970140095318072,9.72676411488349,0.0,0.0,0.0,0.0,0.0,0.0,0.0,0.0,0.0,0.0,0.0,0.0,0.0,0.0,0.0,1268.817512951655,1325.3816172659906,1236.6762507214946,1157.2702857754664,1242.7713763073339,1298.4998130762303,1198.4131032570801,1137.3187862859172,10.98214972796279,-3.777854130022551,-8.77339599685818,-0.5937327337415994
153,1.5400000000000011,5.616218547048044,3.2187185316955786,1.9303988990683862,0.5652542191880341,-0.1509135396914078,-0.020701485668805496,0.8107306702716015,11.173291961960565,13.573017978914711,-3.645865665554446,-3.5152142742019072,-8.309164186224006,-0.3124348947991513,-7.3524477533588595,2.0694119997362037,10.532571026140136,0.0,0.0,0.0,0.0,0.0,0.0,0.0,0.0,0.0,0.0,0.0,0.0,0.0,0.0,0.0,1353.1497302246003,1226.936623869118,1187.180549370805,1194.1858788950553,1321.8385877053406,1266.1201924216882,1193.617414932127,1186.0133961782415,8.999639864663049,-3.5185311833211883,-8.76869224541967,-0.5399998330313033
154,1.5500000000000012,5.727580020266084,3.3545159720671682,1.8944777477209958,0.5623071780647252,-0.12675403739676372,-0.05918945283539397,0.8150096074118097,11.09864082547709,13.5832651614887,-3.53733854408762,-3.6382441838149107,-8.512201205312023,-0.2867512770041744,-7.565936648655125,0.15150834712507333,11.138234902687838,0.0,0.0,0.0,0.0,0.0,0.0,0.0,0.0,0.0,0.0,0.0,0.0,0.0,0.0,0.0,1321.550018293895,1231.5829860312883,1165.7321033760704,1200.3698889186703,1310.9529831714165,1243.3927966614922,1169.9652382383135,1193.565916156136,7.968589154726141,-3.6736583229741044,-9.050731039432241,-0.5388080026438617
155,1.5600000000000012,5.838199265623623,3.490317090028072,1.8596192664768905,0.557974921118499,-0.10178031408279191,-0.09812739126577791,0.8177259749765725,11.025641358756756,13.573711005421515,-3.4360881588615584,-3.588770024804953,-8.623603329642252,-0.25701701677985234,-7.241627558121522,-1.824492164738345,9.868107658710823,0.0,0.0,0.0,0.0,0.0,0.0,0.0,0.0,0.0,0.0,0.0,0.0,0.0,0.0,0.0,1174.5215821574086,1157.6094615106113,1038.6034221039386,1102.6662946841927,1172.6758115380799,1150.5993916545838,1040.8719446089929,1087.1868747440055,8.922839027271698,-4.121640716516676,-9.810199888556939,-0.5442176189862696
156,1.5700000000000012,5.948100055447159,3.625928023595485,1.8257276741390907,0.5522213187930103,-0.07595748563078503,-0.1372562995479313,0.8188057056967581,10.954765041396984,13.54538747837373,-3.343228497268029,-3.6403709193655853,-8.823012478946563,-0.22730331023708117,-7.0522830129799985,-3.6765823707778367,9.127316310026945,0.0,0.0,0.0,0.0,0.0,0.0,0.0,0.0,0.0,0.0,0.0,0.0,0.0,0.0,0.0,1134.0848493606063,1075.819748224578,964.4906452326026,1024.2812035914496,1119.7071284648073,1087.6744585274034,965.8429373086523,1012.9413946858573,11.807865896786597,-4.163183236588813,-9.99999999999988,-0.6415831534350488
157,1.5800000000000012,6.05728820739554,3.761156092269607,1.7927737825844254,0.5447833787861468,-0.04900588887302068,-0.17754165872208347,0.8181005148955269,10.882453581440252,13.496521708420769,-3.2463047883627896,-3.8696520478293706,-9.287987082401457,-0.1951086417485617,-7.308769632764722,-5.883041719940252,9.909736469218,0.0,0.0,0.0,0.0,0.0,0.0,0.0,0.0,0.0,0.0,0.0,0.0,0.0,0.0,0.0,1248.1303745268801,1067.9649279925975,1010.8063870458523,1079.613807007301,1217.3226836313004,1116.6544736335134,1024.3132950963738,1069.6085329881466,15.246966543802898,-3.8882512964002065,-9.999999999999893,-0.5791195465905878
158,1.5900000000000012,6.165726397440704,3.8957632274019893,1.7608745006731479,0.5354521060834794,-0.020851682641960217,-0.21921413320095848,0.8153535510603469,10.80417779019453,13.419782828733984,-3.130410326562362,-4.004821337492525,-9.608559440281834,-0.16748170418673344,-7.999635788779713,-8.986002273234206,12.096095397385653,0.0,0.0,0.0,0.0,0.0,0.0,0.0,0.0,0.0,0.0,0.0,0.0,0.0,0.0,0.0,1393.2969323248758,1275.7993351508887,1166.6952490650933,1224.1057846033943,1387.9555622142354,1302.1022877958185,1181.6035545462285,1222.8860680208898,30.502523798424043,-4.475943600823797,-9.99999999999992,-0.48690481716735634
159,1.6000000000000012,6.273345403099903,4.029427840187131,1.7302479901944534,0.5242894029092726,0.00821972375177145,-0.26114017317943067,0.8104683017183953,10.71864316806344,13.306783998054337,-2.991909451354101,-3.955262958971557,-9.783339661315676,-0.13910772455139528,-8.697014661679603,-12.880498844728194,14.254356243418531,0.0,0.0,0.0,0.0,0.0,0.0,0.0,0.0,0.0,0.0,0.0,0.0,0.0,0.0,0.0,1511.5883308328437,1484.5359529072905,1350.296126689154,1412.7466060138324,1522.1200849153065,1492.3043136397962,1368.820335767619,1411.7845199472868,41.478689264429434,-4.767490805281549,-9.999999999999606,-0.45585619932922816
160,1.6100000000000012,6.3800010409502965,4.161610905909923,1.7013542483501194,0.5113784828881787,0.037564022880788236,-0.30302085858335664,0.8032803686680025,10.607584240450691,13.113447946967412,-2.771321563191708,-4.1959462322498435,-9.882240284390063,-0.10454941300087746,-11.965129264652319,-23.03014176148288,24.68435222758547,0.0,0.0,0.0,0.0,0.0,0.0,0.0,0.0,0.0,0.0,0.0,0.0,0.0,0.0,0.0,2084.901647649313,2028.9804723574161,1997.0133538453272,1972.9503497682583,2102.019786362627,2070.649767890861,2017.0840095395777,2012.7806725390624,42.50928515880093,-4.263519467591853,-9.999999999998042,-0.33428618366282353
161,1.6200000000000012,6.485410754288002,4.291339512278543,1.6750807075287315,0.4967800329893302,0.06636742537607007,-0.34526229324336455,0.7934726917395486,10.471421683587927,12.815588776191673,-2.4755393113691904,-4.452729976574677,-9.934873301904119,-0.062613537861436,-14.061453044723393,-33.57879295561794,30.53125885650987,0.0,0.0,0.0,0.0,0.0,0.0,0.0,0.0,0.0,0.0,0.0,0.0,0.0,0.0,0.0,2427.716489133666,2381.0909391833443,2358.319318013595,2326.8710096508935,2439.248835977649,2406.5680211109666,2370.0740314065642,2349.888655329252,44.03960341537057,-3.805887825225703,-9.435775754178161,-0.2475023910426133
162,1.6300000000000012,6.589425735865498,4.4177006186054895,1.6518149587087378,0.4804870069133821,0.09483275222521587,-0.38694607073344595,0.7812885021787773,10.332512117133271,12.447961160342802,-2.182658879909865,-4.358556488855649,-9.964043913558042,-0.013724603619126646,-13.5779844125814,-38.957872511181435,27.750447148290558,0.0,0.0,0.0,0.0,0.0,0.0,0.0,0.0,0.0,0.0,0.0,0.0,0.0,0.0,0.0,2440.4179420099263,2446.3945607688797,2386.6403087422423,2401.5844284297436,2448.2506660458016,2444.405133380442,2394.2537553033826,2397.4438497765304,43.97588504557836,-3.654680780048754,-8.84054216385547,-0.08278625636302003
163,1.6400000000000012,6.692082204243282,4.5401245659218565,1.6313213046052315,0.46273523086357315,0.12290760138197643,-0.4265522775476531,0.7673480189321368,10.200136458793448,12.028827515418879,-1.9221148392488532,-4.107180987962248,-9.708930951866527,0.03584219624214082,-12.818160344348684,-43.90320174569062,24.277985726325777,0.0,0.0,0.0,0.0,0.0,0.0,0.0,0.0,0.0,0.0,0.0,0.0,0.0,0.0,0.0,2451.242873306128,2514.670120355228,2437.0873095823085,2444.794715052622,2468.7856876290475,2503.516750223513,2438.6370062604615,2446.211388698112,43.56022796055266,-3.130562673099368,-7.981814082154749,0.054183085913395046
164,1.6500000000000012,6.793465907015277,4.658152646407244,1.6132248061499233,0.44408713756126067,0.1497967903430941,-0.46334135364524986,0.752105262485073,10.07867279455729,11.571517894890556,-1.7050230980285246,-3.903304667649234,-9.302932055207373,0.08739373353169325,-11.58332563527864,-47.10929543635345,19.586878903705472,0.0,0.0,0.0,0.0,0.0,0.0,0.0,0.0,0.0,0.0,0.0,0.0,0.0,0.0,0.0,2434.754304004585,2514.5148289549106,2460.5638557114,2439.5418619428046,2449.236798375112,2501.6442590463394,2454.5080388094425,2444.7200592046133,43.11507074678779,-2.9085379089980328,-7.072562687771606,0.19922194094222273
165,1.6600000000000013,6.893700375392824,4.771471910441983,1.5970572378723589,0.42511253692047296,0.17486410316480663,-0.4968080656445364,0.7361274497584922,9.970486752734438,11.088788807286742,-1.5365485733714046,-3.546041350443268,-8.684369314098403,0.13980971960413618,-10.213488655276493,-49.22590418520301,14.708022744891025,0.0,0.0,0.0,0.0,0.0,0.0,0.0,0.0,0.0,0.0,0.0,0.0,0.0,0.0,0.0,2393.6782854699154,2518.6845392082687,2460.151199227459,2431.2269040188608,2417.4742748451213,2496.55824090488,2453.7436328780536,2435.389228829958,42.92598124677179,-2.7054440946060203,-6.8814406872794995,0.29764585224481316
166,1.6700000000000013,6.99292177473379,4.879873739523537,1.5823346486929606,0.4064442672772421,0.19758633935686462,-0.526571771229361,0.7200589322002702,9.876033408083595,10.589294198099779,-1.415619398288422,-3.2560244569109376,-7.934674603406632,0.1911931796621374,-8.853818822849746,-50.57358358554076,10.069377897105936,0.0,0.0,0.0,0.0,0.0,0.0,0.0,0.0,0.0,0.0,0.0,0.0,0.0,0.0,0.0,2367.540888589089,2504.9189838821003,2467.903094203871,2412.899108076815,2390.559673878412,2483.32881370522,2456.2956828419947,2422.4609413220505,42.632861773664175,-2.8723610639210646,-6.522413644324105,0.31045841313344225
167,1.6800000000000013,7.091264218320155,4.983218888152966,1.5685984693758022,0.38817882489672256,0.21815180872508808,-0.5531801432694045,0.7040729488797403,9.79457488937688,10.078122521137594,-1.3386765929475362,-3.001776306667431,-7.460049477003775,0.24079099109874855,-7.577356933532897,-51.54477374599331,5.810148831545181,0.0,0.0,0.0,0.0,0.0,0.0,0.0,0.0,0.0,0.0,0.0,0.0,0.0,0.0,0.0,2375.8130812829113,2478.4488033949897,2455.708864346114,2422.0536675091125,2389.6129208253374,2466.091033867407,2451.857041254393,2423.9716317544153,41.13997777623617,-2.573737492661074,-4.266823766761581,0.3349833867989139
168,1.6900000000000013,7.188855603055465,5.08141578607502,1.5554226786334482,0.3701970892513558,0.2369541201703903,-0.577509922535139,0.6879601365032407,9.72574259556833,9.560548812528086,-1.3031999517684305,-2.940512201519624,-7.0284562398677135,0.28491047745148557,-6.342713934712307,-51.95709834054263,1.7552923965586942,0.0,0.0,0.0,0.0,0.0,0.0,0.0,0.0,0.0,0.0,0.0,0.0,0.0,0.0,0.0,2389.0514444413648,2454.19524581212,2453.649012483252,2402.8670457228936,2397.271424819753,2447.203674999423,2444.0841414580336,2410.008409823899,40.10081603513005,-2.282426036637805,-2.4694124023821624,0.37492227950049584
169,1.7000000000000013,7.285820937743755,5.174460741601356,1.542397754888203,0.35396794813967136,0.25251473347366105,-0.599074173474395,0.6723489687241941,9.669102326399967,9.049968602116342,-1.307981499098763,-2.762258936680843,-5.71362159553772,0.321704916676504,-5.2247806713250355,-50.79285206529427,-2.0710148454889943,0.0,0.0,0.0,0.0,0.0,0.0,0.0,0.0,0.0,0.0,0.0,0.0,0.0,0.0,0.0,2289.5009574570495,2468.7453019123423,2453.3783535942503,2315.402559003529,2328.1302500067777,2431.878480254442,2423.4863758534398,2342.3023670858465,39.79572781710753,-1.9521658962938189,-1.4424652136356277,0.4041611717716869
170,1.7100000000000013,7.38226687464543,5.262453001798422,1.5291520384100163,0.3412708427497197,0.2633162091923168,-0.6168942288272597,0.6585137024429368,9.621166894724361,8.550074020483446,-1.3459755236595015,-2.538935513993534,-4.207046301888565,0.34932159604897955,-4.536665776230464,-49.66898670413222,-5.0345260331579045,0.0,0.0,0.0,0.0,0.0,0.0,0.0,0.0,0.0,0.0,0.0,0.0,0.0,0.0,0.0,2230.535419155217,2462.717101618438,2439.332275930001,2268.4664278164882,2272.2212956246567,2423.990832852331,2409.620905757009,2296.8820302303957,38.622011561363834,-1.6264445057446564,0.15574855891825767,0.33680833694967494
171,1.7200000000000013,7.478258820823635,5.345485081079948,1.5153956471286474,0.33225596384310413,0.2697100346378575,-0.6311665009994384,0.6469090505801117,9.577660162822472,8.057284132391098,-1.408847411476704,-2.26928543315897,-2.937916732258431,0.36905666225573047,-4.2529450006174585,-49.0551857723176,-7.202933699097525,0.0,0.0,0.0,0.0,0.0,0.0,0.0,0.0,0.0,0.0,0.0,0.0,0.0,0.0,0.0,2228.5339060276383,2445.112757073218,2414.746650870899,2275.9360189941167,2262.126953101964,2414.6460878759376,2395.5729215492634,2294.7467797005233,35.34102063833081,-0.8838806511818635,1.5697579760734885,-0.06321003381422302
172,1.7300000000000013,7.573825934175713,5.423646309057771,1.50091337299422,0.3269822943343043,0.2720458420637363,-0.6420720417618495,0.6378221791341824,9.535767052290838,7.577184190366938,-1.4900913271397087,-1.9771496955454688,-1.4960486298021425,0.3767589921715366,-4.218380050380333,-47.54415082201291,-8.745897884079756,0.0,0.0,0.0,0.0,0.0,0.0,0.0,0.0,0.0,0.0,0.0,0.0,0.0,0.0,0.0,2189.4541952961413,2427.681764596049,2380.2183402358587,2229.900183069752,2228.9996871698863,2390.554794188172,2354.436626553952,2253.519509584186,37.1280362756215,-0.9053957972075314,2.28325223006032,0.35122928493578515
173,1.7400000000000013,7.668974591393856,5.497142095905976,1.4855543858403917,0.32573703082867544,0.27043888920231335,-0.6492612441451374,0.6318370286751529,9.493756846887724,7.127137793533632,-1.5830336613646026,-1.478657346873211,-0.0743423389240839,0.35069246797049036,-4.298968461309727,-43.99866820308773,-9.600811460556136,0.0,0.0,0.0,0.0,0.0,0.0,0.0,0.0,0.0,0.0,0.0,0.0,0.0,0.0,0.0,2103.7625788711534,2381.192004753457,2239.052679394725,2112.0261880522735,2147.8145976950873,2336.1988037784276,2215.674725454906,2124.826196670562,38.80184335907058,-0.7753820631824262,2.861464366559518,0.590099821247505
174,1.7500000000000013,7.763684312745437,5.566177633442882,1.4692379561588578,0.3280830706776259,0.2655677920254236,-0.6531435770688753,0.628680136720698,9.447058841603978,6.678338009220415,-1.6805747323393243,-1.2309073534097752,1.005335330713644,0.33790712270128676,-4.973428472595742,-45.12848789814505,-9.816413880171071,0.0,0.0,0.0,0.0,0.0,0.0,0.0,0.0,0.0,0.0,0.0,0.0,0.0,0.0,0.0,2157.4189517935056,2359.814876331087,2315.55342298919,2201.789879569752,2184.1324099892195,2336.6443571084037,2302.510010333388,2224.6132990812484,39.12823275671346,-0.5026318691173932,3.469629302121726,0.5502421178301243
175,1.7600000000000013,7.85788773653539,5.63066398836193,1.4519431980289776,0.3332491323176897,0.25801281732214904,-0.6547054394006714,0.6274832185215541,9.392075679552514,6.217180606910166,-1.7780433216796068,-1.028604913145448,1.8585937284368657,0.3509180825930378,-5.909057426386255,-46.38364119421112,-9.636006493711324,0.0,0.0,0.0,0.0,0.0,0.0,0.0,0.0,0.0,0.0,0.0,0.0,0.0,0.0,0.0,2212.1133808214568,2367.1598376730435,2373.0483142329354,2286.107340650116,2234.8472699123736,2349.652189114015,2364.233458060545,2301.9787568528577,39.622914128498124,-0.2694400155420487,3.9204235284122158,0.5385941036641895
176,1.7700000000000014,7.95149433812271,5.690512908791799,1.4336893128770385,0.3406433256115737,0.24824279721165096,-0.6542141420968494,0.6279661572324624,9.32759433473543,5.752743373144542,-1.871840693160175,-0.7948767057448732,2.6027134828795466,0.3669192253993497,-6.896521398418898,-46.35604016714456,-9.1188091174228,0.0,0.0,0.0,0.0,0.0,0.0,0.0,0.0,0.0,0.0,0.0,0.0,0.0,0.0,0.0,2234.1343425901937,2376.105060286134,2370.1397366856327,2305.672303375172,2256.3953111072274,2357.4725010927864,2361.249412529871,2315.0947141549045,40.54492548142848,-0.09435935640567505,4.144370139716755,0.5310054495372155
177,1.7800000000000014,8.044403641875935,5.745717134573056,1.4145295930309398,0.3498350580176322,0.23666630074980155,-0.6517431516978858,0.6299486951221593,9.25238371158961,5.28816784292421,-1.9586959843306697,-0.5643189257054464,3.2091120930505195,0.3800293835767343,-8.027029142276376,-46.376810500287746,-8.289833548958292,0.0,0.0,0.0,0.0,0.0,0.0,0.0,0.0,0.0,0.0,0.0,0.0,0.0,0.0,0.0,2260.3146637125997,2384.1820655940073,2372.975491078194,2327.5585223362036,2278.9873813853137,2368.7523786540933,2366.889227091593,2334.545351423156,41.4458258913549,-0.0001346440509284591,4.175546441897948,0.4246365793283321
178,1.7900000000000014,8.136500223867058,5.796263967633193,1.394548652924321,0.36031070068144494,0.22374894894362227,-0.6475286405402254,0.6331028877688037,9.164793138425336,4.820784222535607,-2.0356296199207007,-0.36008819422568356,3.636730901221512,0.39170363937592184,-9.32222729749732,-46.73684069484718,-7.182255823126482,0.0,0.0,0.0,0.0,0.0,0.0,0.0,0.0,0.0,0.0,0.0,0.0,0.0,0.0,0.0,2303.073199841679,2398.7180462095434,2387.5727609996243,2362.4560385783275,2316.8446789198433,2388.7868658712673,2385.406054874479,2366.72971657097,41.92857543273625,0.21715390259625583,4.204095304192746,0.35082907687302023
179,1.8000000000000014,8.22765439579058,5.8421204239023155,1.37385820014419,0.3715129470382096,0.20999982648321774,-0.6419446490317863,0.6370127711745345,9.06379829249275,4.35023416028491,-2.1002758201330445,-0.20629665274656725,3.880689065608178,0.3961399776275018,-10.68517209045794,-47.015502992645786,-5.874200799340201,0.0,0.0,0.0,0.0,0.0,0.0,0.0,0.0,0.0,0.0,0.0,0.0,0.0,0.0,0.0,2355.037066056251,2417.680966235971,2396.0973875423333,2388.3881610269523,2363.3399759859194,2413.2361055997703,2396.325463029339,2389.7999424012214,42.30656363354228,0.435927957408334,4.139485248939552,0.3088474747026637
180,1.8100000000000014,8.31773206503753,5.88327036047149,1.3525887051382335,0.3830127182584815,0.19587001882030025,-0.6352269754832133,0.6414225463748786,8.94959922295759,3.880190859611596,-2.151271810396211,-0.021687374154023838,4.02830004300993,0.3934909291442317,-11.981094534283088,-46.82136594334229,-4.464623693748226,0.0,0.0,0.0,0.0,0.0,0.0,0.0,0.0,0.0,0.0,0.0,0.0,0.0,0.0,0.0,2381.2204747272576,2432.6991141038193,2395.473037388541,2405.8326398031877,2388.586075243019,2427.436606471898,2398.138851076303,2404.171222316466,42.68193274600203,0.6279389481587765,3.9777265584392967,0.2641655583428622
181,1.8200000000000014,8.406604225681518,5.919734700268895,1.3308814340884938,0.3944863504956321,0.18173763889604935,-0.627449036790145,0.6462659329658695,8.822811707334763,3.4134192338009646,-2.187702455027825,0.17724672235195726,4.077151535188278,0.387501254119429,-13.208223988629086,-46.426987015402595,-2.975662216414765,0.0,0.0,0.0,0.0,0.0,0.0,0.0,0.0,0.0,0.0,0.0,0.0,0.0,0.0,0.0,2400.5945499807867,2441.592821457246,2395.617997859528,2421.408231773937,2405.893378536476,2437.57453598727,2400.498239014209,2417.6279631219645,43.01568837821218,0.8029485296357841,3.7366268417778525,0.2154309780348621
182,1.8300000000000014,8.494148508653605,5.951552860478173,1.3088856139521392,0.40563223260325676,0.16794913245938656,-0.6187688244770111,0.6514451033162922,8.6841645631756,2.9510900493040086,-2.208898449961281,0.3728176633426459,4.028498860507058,0.3793162369855185,-14.353354338428659,-45.948460852284875,-1.433496674420276,0.0,0.0,0.0,0.0,0.0,0.0,0.0,0.0,0.0,0.0,0.0,0.0,0.0,0.0,0.0,2420.9854546759534,2448.599759013657,2397.1354023446984,2435.288777633189,2423.9153393289753,2446.770729862404,2403.8127919097215,2429.836261213004,43.299535480650356,0.9552021533949464,3.4393067562066926,0.17350076414226143
183,1.8400000000000014,8.58025128068978,5.978774060059469,1.286755338283876,0.4161875780771271,0.15481897995854263,-0.6093981157799743,0.6568507591399351,8.53471296236803,2.494181856556676,-2.2145834118485554,0.5595270950636022,3.8911185005285542,0.3687360305105224,-15.377678005769724,-45.370837445983355,0.11748761201024749,0.0,0.0,0.0,0.0,0.0,0.0,0.0,0.0,0.0,0.0,0.0,0.0,0.0,0.0,0.0,2440.2613330686227,2454.5214291757484,2398.4314947869716,2446.7983652546504,2441.069822727318,2454.592059025506,2406.606827558872,2439.8730802556775,43.49575484541359,1.0972248196548047,3.1115658794234515,0.13389995687989478
184,1.8500000000000014,8.664811153250398,6.001457351786559,1.2646453301270137,0.4259450254764649,0.142615699537736,-0.5995615674480541,0.6623877447209061,8.375831250869888,2.043642763583551,-2.2048996944454293,0.7311544184218185,3.680250292435415,0.3560705997378581,-16.25414303776118,-44.705096790720766,1.6375852098233779,0.0,0.0,0.0,0.0,0.0,0.0,0.0,0.0,0.0,0.0,0.0,0.0,0.0,0.0,0.0,2456.854099187897,2458.839636349245,2400.44432244312,2456.1287265118463,2455.777166885765,2460.50903506304,2409.6288796478025,2448.244490321071,43.5157501549466,1.1990038964764294,2.729751262218848,0.10141837844383786
185,1.8600000000000014,8.747741930276602,6.019671342510707,1.2427067876393973,0.43476226030241133,0.13154694550722762,-0.5894668734399233,0.6679865142811031,8.20918392691592,1.6004662920110253,-2.1804103190103072,0.8902188263633557,3.415973099269204,0.341559586780762,-16.95460732027243,-43.94117342394343,3.0858262190061048,0.0,0.0,0.0,0.0,0.0,0.0,0.0,0.0,0.0,0.0,0.0,0.0,0.0,0.0,0.0,2469.22641729921,2461.771939339569,2401.5391302528965,2462.2172880073417,2466.8257668302363,2464.4283169177356,2411.325969664962,2453.623676593535,43.1570685764309,1.223985251830024,2.284778059833138,0.12072736455541375
186,1.8700000000000014,8.82897587333912,6.0334963077061134,1.2210828492646557,0.44253512479054696,0.12177843986631935,-0.5793271689829553,0.6735819966333234,8.036814134610845,1.1660505227931068,-2.1421864417590166,1.0238434418717628,3.0970662114590657,0.32557174480742446,-17.439022022355033,-43.02844190034594,4.4065668509931655,0.0,0.0,0.0,0.0,0.0,0.0,0.0,0.0,0.0,0.0,0.0,0.0,0.0,0.0,0.0,2476.8103444875464,2458.48290617503,2399.4001080545986,2463.1681758842524,2472.410511380129,2462.563496479266,2409.4430913202186,2453.9722058252223,42.8082176064533,1.2083294502372721,1.8309749685220458,0.13141540491729536
187,1.8800000000000014,8.908468743249255,6.043031691020658,1.1999018543371267,0.44916300986763213,0.11344047097476126,-0.5694306709802954,0.6790674201127632,7.86142564767581,0.7429596004456323,-2.092190199867202,1.108744042027376,2.719461275628069,0.3113319013020694,-17.63387949385553,-41.8272472817387,5.4956038613109826,0.0,0.0,0.0,0.0,0.0,0.0,0.0,0.0,0.0,0.0,0.0,0.0,0.0,0.0,0.0,2472.139519755392,2438.980973185795,2392.1153922013227,2456.220477120363,2464.630807526639,2444.8941640495937,2401.7570001880035,2446.675493386121,42.48892183042912,1.1569288949191432,1.3793056096230183,0.13534883149082655
188,1.8900000000000015,8.986201162623923,6.0483953712938305,1.1792721565695015,0.4545754069611192,0.10659884691867205,-0.560082491012519,0.6843284945718351,7.684981747176547,0.3316120126898231,-2.0321899331710744,1.1494507443129567,2.3074204927785096,0.29914593634099923,-17.67144359573347,-40.68078301006367,6.425394415526586,0.0,0.0,0.0,0.0,0.0,0.0,0.0,0.0,0.0,0.0,0.0,0.0,0.0,0.0,0.0,2466.422986555866,2421.192980381561,2385.1119075483393,2447.223761207629,2457.493325117253,2428.69947589943,2394.2972833956087,2437.9542124439,42.18057497954078,1.066677992161938,0.9300108037988248,0.13096599338320813
189,1.9000000000000015,9.062169693774488,6.049700696829399,1.1592859720845627,0.4587593764466575,0.10125955883012858,-0.5515267299162073,0.6892783200244562,7.508858533811975,-0.06887925887453954,-1.9637517778704223,1.1495202788370853,1.8774423064406267,0.28792272072322145,-17.582593004556557,-39.63781344447814,7.19710401806295,0.0,0.0,0.0,0.0,0.0,0.0,0.0,0.0,0.0,0.0,0.0,0.0,0.0,0.0,0.0,2460.6318232214803,2406.228484768262,2379.111318881405,2437.4860453572805,2450.7396029106276,2414.928162294178,2387.673523786889,2428.7888762418274,41.842556492128274,0.9497621325615153,0.46897902869578056,0.11450002637781644
190,1.9100000000000015,9.136383660155388,6.047051242885181,1.1400195192125953,0.4617365582368614,0.09738968629474476,-0.5439666760063302,0.6938406554718547,7.334256391572412,-0.4595085588893128,-1.8885250252704537,1.10962439437979,1.4386315859502263,0.27666663350313586,-17.38055505138192,-38.69499389253822,7.799897498414365,0.0,0.0,0.0,0.0,0.0,0.0,0.0,0.0,0.0,0.0,0.0,0.0,0.0,0.0,0.0,2455.094393460372,2392.960925199272,2373.3387008367195,2426.771834598576,2444.3001796951485,2402.71813684476,2381.1266697664933,2418.7783396309082,41.52891208681955,0.7963305805827979,0.03281924760541366,0.09086002312806982
191,1.9200000000000015,9.20886398975959,6.040541447834847,1.121531727777744,0.4635348084157714,0.09495206044586436,-0.5375809864880722,0.6979443176719402,7.162310882023495,-0.8410768542572409,-1.8083298149063067,1.0358988876240878,0.9892298169264129,0.26429242818969484,-17.068518220527018,-37.82683092482031,8.214647520878415,0.0,0.0,0.0,0.0,0.0,0.0,0.0,0.0,0.0,0.0,0.0,0.0,0.0,0.0,0.0,2449.2445211987724,2380.144132911384,2365.372913650772,2414.76298084885,2437.5301908442893,2390.847290337148,2372.6498341506194,2407.130947395616,41.26113818787694,0.6117175647366856,-0.3653666268119414,0.06132074827253926
192,1.9300000000000015,9.279641910199873,6.030256884818462,1.1038634057532921,0.4641987420606476,0.09388849129763233,-0.5325158831033351,0.7015207148144964,6.993899475884282,-1.2146573964631577,-1.724914451804735,0.9268275416031867,0.5464666920763922,0.25013244286924907,-16.681475346641328,-37.07829122654438,8.45967809876802,0.0,0.0,0.0,0.0,0.0,0.0,0.0,0.0,0.0,0.0,0.0,0.0,0.0,0.0,0.0,2443.572675964223,2369.2975181764195,2358.56230770846,2401.8582166803917,2431.3351971180805,2380.607300943988,2364.8545246962963,2395.2489371581487,40.988953368156146,0.4266500714348564,-0.7075136597884626,0.04120078631924855
193,1.9400000000000015,9.348755899711044,6.016270920401369,1.0870386263549938,0.4638100385635421,0.09408470060319514,-0.5288737367495807,0.7045004526731178,6.829605711338989,-1.581575053647985,-1.6398840471382772,0.7843628885922332,0.12466781393570346,0.23389802164769347,-16.246950198184784,-36.46582447824742,8.548637480717103,0.0,0.0,0.0,0.0,0.0,0.0,0.0,0.0,0.0,0.0,0.0,0.0,0.0,0.0,0.0,2438.370321812364,2361.179564561204,2353.587762576221,2388.990306209966,2425.9939485331547,2372.728663383313,2358.6777975092177,2383.7106272169513,40.66254598948601,0.24273547155452962,-0.9947282237293085,0.03264396745242785
194,1.9500000000000015,9.41624961460197,5.998644616029494,1.0710653393657974,0.46247943427865873,0.09538897090520317,-0.5266847588274727,0.7068358238783495,6.669919124777778,-1.9428732691681114,-1.5548915464931754,0.6235742731206284,-0.2598256113635194,0.21643095270428603,-15.767104654323738,-35.94335268096294,8.471571058436878,0.0,0.0,0.0,0.0,0.0,0.0,0.0,0.0,0.0,0.0,0.0,0.0,0.0,0.0,0.0,2430.1718917958347,2354.323519834127,2349.3646974953217,2376.854529141904,2418.320898429141,2365.1760796955664,2353.3218333719574,2372.7881210922105,40.2746955490833,0.08146853678108232,-1.2681754286329703,0.02392769720862637
195,1.9600000000000015,9.4821715703301,5.977431097568773,1.0559345157957236,0.46033272876158104,0.09762971929637759,-0.5259031978181156,0.708511145477407,6.515325672168444,-2.299086065855787,-1.47167319116072,0.4528176918879731,-0.5991515606307163,0.19911076866328375,-15.241422346138123,-35.45775868763323,8.221899045143921,0.0,0.0,0.0,0.0,0.0,0.0,0.0,0.0,0.0,0.0,0.0,0.0,0.0,0.0,0.0,2418.2260064948064,2346.2981391954154,2344.451398026417,2364.247395471881,2407.080588926269,2356.149260086669,2347.2115664502203,2361.2809393780967,39.908404197755644,-0.08428120714841475,-1.4806089962326243,0.015021929752883842
