,t,px,py,pz,qw,qx,qy,qz,vx,vy,vz,omex,omey,omez,accx,accy,accz,taux,tauy,tauz,jerkx,jerky,jerkz,snapx,snapy,snapz,bomex,bomey,bomez,baccx,baccy,baccz,mot1,mot2,mot3,mot4,motdex1,motdex2,motdex3,motdex4,f1,f2,f3,f4
1,0.02,-5.807669145967758,3.102958042416333,0.4984122933083769,1.0,1.2165270103623684e-27,5.303110032292305e-28,3.800941958135414e-28,-2.180962948194835e-25,-3.42201964213072e-26,-0.09797725679521012,-4.141282798647678e-26,2.3232383638905356e-26,-9.193392323964714e-27,5.007256263825908e-26,4.143794909345756e-27,-9.789743129156495,0.0,0.0,0.0,0.0,0.0,0.0,0.0,0.0,0.0,0.0,0.0,0.0,0.0,0.0,0.0,0.0,0.0,0.0,0.0,0.0,0.0,0.0,0.0,13.589821003714647,9.374648135561657,4.527894675437698,0.3497002880540374
2,0.03,-5.80766894982837,3.1029571267017775,0.4973311904617944,0.9999796222480861,0.0061976950386251626,0.0015152348574472064,-0.00021846764086808142,0.00011042653952126007,-0.0004915708903844991,-0.08804267148186966,3.3003247558186826,0.954381645512957,-0.12092196588399548,0.041252036296244375,-0.17296430537049046,6.207144867881042,0.0,0.0,0.0,0.0,0.0,0.0,0.0,0.0,0.0,0.0,0.0,0.0,0.0,0.0,0.0,0.0,2354.9915018443544,1019.769708898601,1613.1287270088285,0.0,2203.5244369900443,1440.3491266243693,1484.3758214388272,13.589821003714647,9.374648135561657,4.527894675437698,0.3497002880540374
3,0.04,-5.807662260630607,3.1029331027705185,0.4967032522495816,0.999480554874802,0.030430602692617253,0.010572835087831288,-0.0009022223270679991,0.0016242207516811143,-0.005356426747013293,-0.04158571465096066,6.10375391459966,2.536701857987164,-0.1323725768134862,0.26993719533619454,-0.7876417805921477,3.8026563652516496,0.0,0.0,0.0,0.0,0.0,0.0,0.0,0.0,0.0,0.0,0.0,0.0,0.0,0.0,0.0,501.2458852437453,1827.1019919965204,1356.151429475488,1558.4583754472128,738.4087530642934,1732.7979070302606,1373.3453561293163,1554.6129410871988,13.589821003714647,9.374648135561657,4.527894675437698,0.3497002880540374
4,0.05,-5.807625526878126,3.1028235968310334,0.49647197477247185,0.9975476693580738,0.0651344818887782,0.025581806938066238,-0.0013106414990957567,0.006395112447552378,-0.018107286434863357,-0.004871735333115064,7.625384358629596,3.4006538992698876,-0.06929487943687355,0.6655537446399913,-1.7093927260481319,3.625041220786463,0.0,0.0,0.0,0.0,0.0,0.0,0.0,0.0,0.0,0.0,0.0,0.0,0.0,0.0,0.0,977.0147150724453,1616.1868217804297,1416.5930214322116,1503.0189588717867,1055.0144064185,1575.7395785955568,1423.364863631493,1492.9021349989368,13.589821003714647,9.374648135561657,4.527894675437698,0.3497002880540374
5,0.060000000000000005,-5.807519293738794,3.102536894868718,0.4966014962908515,0.9934697011221402,0.10534253022665561,0.04380778659621011,-0.0013349574047676217,0.015663908371000918,-0.04103252132265296,0.03043562921874702,8.436372716809908,3.890834529376874,-0.008387697584239476,1.1493967688576812,-2.7832095443010085,3.4294078358058435,0.0,0.0,0.0,0.0,0.0,0.0,0.0,0.0,0.0,0.0,0.0,0.0,0.0,0.0,0.0,1165.638772206109,1505.6882464021162,1432.1398033684036,1472.817096007359,1203.236596593797,1481.8059164246004,1434.6741747363646,1465.9187794755624,17.613073556287624,3.053410362610135,1.3577425613281466,0.1923663439966474
6,0.07,-5.807295262068182,3.101965884268831,0.49707132261059367,0.9868792616078182,0.14833325619634513,0.06376177202729855,-0.0010022686945088577,0.030017455500800844,-0.07505496680161515,0.06293748010368481,8.870356358128733,4.168994497993555,0.04770021319604134,1.6728208271251308,-3.9124005959801504,3.0815688037837825,0.0,0.0,0.0,0.0,0.0,0.0,0.0,0.0,0.0,0.0,0.0,0.0,0.0,0.0,0.0,1260.1565700042022,1444.2717895769772,1435.2622357778137,1454.5008091884274,1280.1086895613664,1431.3152345148408,1435.2312215570203,1450.3464138030317,22.51301285802441,4.283972592948137,2.1533381785172354,0.10979502861977339
7,0.08,-5.80688496156574,3.1009608389758716,0.49795545663183594,0.9792154664499557,0.18555588912680335,0.08188979575825933,-0.00037898051118489905,0.053763988836100146,-0.12966164183887138,0.11832226821019606,6.105190352074136,3.0414984565520733,0.06269309183886343,2.7127340440285392,-6.166498062603207,5.934507897573924,0.0,0.0,0.0,0.0,0.0,0.0,0.0,0.0,0.0,0.0,0.0,0.0,0.0,0.0,0.0,1963.487481478035,982.5020866749633,1665.7287614984855,1523.2915515611073,1782.6509609480024,1344.279876885057,1613.352190547854,1608.4460906004042,24.719384297362925,4.018932205324162,2.2511165994818905,0.1696259892919757
8,0.09,-5.806180329878443,3.0992874528339205,0.49954557814379674,0.972325767470389,0.21323308381533437,0.09546819920930728,0.00027716322602186467,0.08939272785761176,-0.20982898997389202,0.20600302909079132,5.331431742016448,2.663403724014961,0.08716919560454223,4.067768369920927,-9.09393965220623,9.90526227736302,0.0,0.0,0.0,0.0,0.0,0.0,0.0,0.0,0.0,0.0,0.0,0.0,0.0,0.0,0.0,1913.8931630014024,1644.89264113042,1841.1767629882547,1749.525649792555,1934.1673611682313,1656.2788339406588,1842.6667183480417,1768.0244797510004,25.365735162486057,3.3642493046480206,2.11499219207436,0.22583633966539246
9,0.09999999999999999,-5.805059279118385,3.096684501447815,0.5021516430055891,0.9654156880237305,0.23739722555579668,0.10776792807879396,0.0010864132185695748,0.136397666161423,-0.3139858676697123,0.3172051503114234,4.703247372763212,2.4794646543242393,0.10093122666540003,5.071348607661729,-11.157716147285335,11.397029879453846,0.0,0.0,0.0,0.0,0.0,0.0,0.0,0.0,0.0,0.0,0.0,0.0,0.0,0.0,0.0,1941.6585198732269,1810.1873131131254,1920.448530917553,1863.161542267251,1935.4298648242673,1827.5555613480813,1917.682748885752,1875.324698501043,26.073800563363978,2.4920035884848026,1.843698608634621,0.27121818072819587
10,0.10999999999999999,-5.803427043144285,3.092958463692187,0.5058992276086424,0.958643822919371,0.2584390820424395,0.11919235377909533,0.0021081869447276253,0.19114661940458855,-0.43324070348490706,0.43210952090111654,4.063036014893725,2.320290931814726,0.11770692626116944,5.750006761835069,-12.419237856559128,11.359747852057566,0.0,0.0,0.0,0.0,0.0,0.0,0.0,0.0,0.0,0.0,0.0,0.0,0.0,0.0,0.0,1963.836815610372,1835.8889570736062,1953.5209696843692,1893.521129842437,1945.9394102368385,1858.7774890815783,1943.413197495976,1906.5678745786774,26.982553897420992,1.467994051440705,1.4547322497543056,0.304273746924867
11,0.11999999999999998,-5.80121390393033,3.0879797185831532,0.5107924258936148,0.952360211665675,0.27602573475884745,0.1296468155418542,0.0033947322141494192,0.2525394734289922,-0.5642915900161836,0.54633898661923,3.312261317680788,2.1114565439062223,0.13721109623910935,6.402011159172771,-13.531762115512768,11.302518926445293,0.0,0.0,0.0,0.0,0.0,0.0,0.0,0.0,0.0,0.0,0.0,0.0,0.0,0.0,0.0,1999.4638454597105,1846.9995591192273,1985.154451872988,1920.051039574572,1976.1431248199353,1876.4086774142409,1973.4101860801716,1934.4856812660964,27.675531754995703,1.008723292392441,1.1804012568750846,0.2799787282937934
12,0.12999999999999998,-5.798353302378565,3.081634779637873,0.5168300614161936,0.9470043411243199,0.28963008102101284,0.1388256530507497,0.00496307510393474,0.3206590992417171,-0.7063642262823099,0.6613350941140548,2.4317696691354107,1.823184198839675,0.15780917802308905,7.07158974739841,-14.58637146779429,11.456329431402178,0.0,0.0,0.0,0.0,0.0,0.0,0.0,0.0,0.0,0.0,0.0,0.0,0.0,0.0,0.0,2046.91415111726,1861.9574036796398,2020.424286013119,1953.2628882770357,2018.8852979151739,1898.145479954236,2008.3238321825302,1968.602262150127,27.484479397553027,0.2913995489902359,0.6712595194462644,0.2851987348925384
13,0.13999999999999999,-5.794779842161954,3.073821849672053,0.5240232386490639,0.9427384925323923,0.29952643961316994,0.1465695274459757,0.006739458040093241,0.39495900594037925,-0.8574666475362549,0.7773491687292883,1.7654575235614751,1.5432688806750143,0.17415256734514303,7.652858688951825,-15.389001174725413,11.551483647547656,0.0,0.0,0.0,0.0,0.0,0.0,0.0,0.0,0.0,0.0,0.0,0.0,0.0,0.0,0.0,2064.352789827047,1905.9152439784336,2030.821067162278,1986.5801957007163,2044.6641067141002,1931.3879803042485,2024.4613980773051,1994.639508839968,26.637267008885495,-0.6176924639791836,0.07498292628104186,0.280095396213146
14,0.15,-5.7904423993384695,3.0644745864640313,0.5323634472567055,0.9396122580573467,0.30617322584423273,0.15268586121785707,0.00858999817648227,0.47298998307536316,-1.0122867793748938,0.8899699245928946,1.0629615596507862,1.1588731907511918,0.18785225316683885,7.926581953551337,-15.563507652273655,11.08912731916034,0.0,0.0,0.0,0.0,0.0,0.0,0.0,0.0,0.0,0.0,0.0,0.0,0.0,0.0,0.0,2068.233120954401,1892.0973082803057,2014.706765955142,1990.1888430609317,2041.5840446795678,1922.0726764593746,2009.19662497306,1994.560659347459,25.94603945364428,-1.0492659459701414,-0.14636236755496215,0.28508853227180514
15,0.16,-5.785318726067784,3.053584879035581,0.5417943128325261,0.9379083695195657,0.30929209159886406,0.15670949081186156,0.010412874196719352,0.5517478640266186,-1.1651385360506628,0.9950131087501919,0.2600371506790959,0.6817779096999238,0.19950581575323606,7.898664657144394,-15.192189209437545,10.269098509161022,0.0,0.0,0.0,0.0,0.0,0.0,0.0,0.0,0.0,0.0,0.0,0.0,0.0,0.0,0.0,2056.2356334155083,1845.389208829636,1980.9223812736868,1961.4662536120898,2022.8377903328833,1881.2213478815709,1973.2868810564316,1965.5575325028651,24.62069536579683,-1.3573754076558222,-0.2994975421065892,0.2917342792673448
16,0.17,-5.779409853308589,3.0411858579026254,0.5522409493898188,0.9376079624284822,0.3091246622708945,0.15869716909000864,0.012184436360888706,0.6299048559846994,-1.3140007434138468,1.0934802209051695,-0.35338076113687805,0.3220233752184331,0.20919925895287425,7.803327653710834,-14.74797806619188,9.692851610216602,0.0,0.0,0.0,0.0,0.0,0.0,0.0,0.0,0.0,0.0,0.0,0.0,0.0,0.0,0.0,2012.6965242429837,1841.2368413539366,1955.1824390249706,1934.6950317721107,1990.0676939273444,1864.0193294648611,1948.3735297781045,1938.4865953221583,22.374452473246553,-1.5999081647469378,-0.2894638448726882,0.29705469280679364
17,0.18000000000000002,-5.772731060492006,3.027332507950243,0.5636324130911575,0.9383838526313706,0.3064457275362573,0.1591614765725833,0.013942222588783568,0.70534283549131,-1.4553410214866873,1.183483857599916,-0.8247458470674335,0.05028653215635939,0.21829313826097047,7.450900479906597,-13.861797649992402,8.767291948894806,0.0,0.0,0.0,0.0,0.0,0.0,0.0,0.0,0.0,0.0,0.0,0.0,0.0,0.0,0.0,1945.2538967767707,1812.7220037543518,1904.8436998580903,1887.084866946339,1926.9239504863735,1827.84150215253,1898.315906441066,1888.2643769618614,23.168970585809703,-1.7391485502237858,-0.27377956153534094,0.30294672154642305
18,0.19000000000000003,-5.765324768101213,3.012126364048774,0.5758586656250785,0.9399416610184077,0.3018374823263546,0.15860538589653342,0.015752450903145383,0.7749285952983106,-1.5837294121362002,1.259537945061332,-1.1891757620843975,-0.09697260191799681,0.22698116958615175,6.773798576393042,-12.40733191524912,7.21304496898334,0.0,0.0,0.0,0.0,0.0,0.0,0.0,0.0,0.0,0.0,0.0,0.0,0.0,0.0,0.0,1840.3182726544505,1746.5564658490796,1823.3166920330304,1796.1580617284164,1825.557144511203,1753.6249353494438,1813.2354994511697,1797.1829643176036,25.360165696397832,-1.7351658157066512,-0.228485231821148,0.3085778566738607
19,0.20000000000000004,-5.757231705605325,2.9956634534466016,0.5888313594424565,0.9420152665629931,0.2957898807953459,0.15748973097905503,0.017679610218366653,0.8439348795521858,-1.708944588527058,1.3360135582159338,-1.4463185969791612,-0.17481491588873227,0.23538964304680532,6.942895392967219,-12.498196687487306,7.86179849131563,0.0,0.0,0.0,0.0,0.0,0.0,0.0,0.0,0.0,0.0,0.0,0.0,0.0,0.0,0.0,1849.9785659743009,1790.3846054718445,1848.5123816496828,1822.1127955463846,1844.6840244249793,1799.0168762140681,1845.232522544885,1827.657502728049,25.22466036171056,-1.628713308859986,-0.12909949135861926,0.3126345654794459
20,0.21000000000000005,-5.748427246798299,2.977921592427037,0.6026354748512376,0.9443609969990954,0.2888331604819503,0.15610481793911363,0.01972304664799512,0.917844704783825,-1.8405840183705258,1.4275643392623687,-1.578842131185466,-0.1989237063748026,0.243545075329642,7.550814572509057,-13.331013416040483,9.699524390399006,0.0,0.0,0.0,0.0,0.0,0.0,0.0,0.0,0.0,0.0,0.0,0.0,0.0,0.0,0.0,1916.3425025611402,1889.0516971718662,1925.5877056151098,1907.3795573432476,1918.61923851712,1895.5514260711363,1927.327541463235,1913.5218780477023,25.09149207172637,-1.4677303351175335,0.0017935918577165755,0.31719750636312316
21,0.22000000000000006,-5.7388719835531115,2.9588557326360307,0.6174003604606418,0.9467487766760109,0.28151909704995814,0.15471147128052556,0.02186578406708427,0.9931320136256905,-1.971989343622711,1.5257414228760886,-1.5984103974703967,-0.16865645680571953,0.251311203232706,7.509536775425096,-12.98021515490122,9.908391496897817,0.0,0.0,0.0,0.0,0.0,0.0,0.0,0.0,0.0,0.0,0.0,0.0,0.0,0.0,0.0,1901.5969466150184,1902.8008834189598,1921.2220114389402,1909.1620744548577,1903.9712936385986,1900.756469896594,1920.0514071558418,1909.846271786682,25.50462320393139,-1.2547738657657879,0.14253553277884418,0.32040877610546264
22,0.23000000000000007,-5.72856697390903,2.9384954750545558,0.6331541832968256,0.9489976982781251,0.27430680598870144,0.15355268052486754,0.02409811516956608,1.06776492642844,-2.0993904459521446,1.6252099746068585,-1.5334820819537593,-0.09451334974652696,0.25867703076598925,7.440717132229713,-12.567736642942418,10.008463174402404,0.0,0.0,0.0,0.0,0.0,0.0,0.0,0.0,0.0,0.0,0.0,0.0,0.0,0.0,0.0,1885.6024802870002,1909.5718001265288,1913.9953596900934,1906.1376433797523,1890.8145615322421,1904.34698293061,1913.3929522356557,1905.8782778784507,25.869388018873693,-1.022352812609815,0.30046024284554185,0.3216528503463979
23,0.24000000000000007,-5.71751427738559,2.9168740354533527,0.6499191125864004,0.9509808386945655,0.26755642070501784,0.1528124857532565,0.026407392397036617,1.142928188806981,-2.2246322092988535,1.728528014561888,-1.3989293226870192,0.008556363667958018,0.265570202517527,7.544778036524313,-12.42964400398927,10.494909847179379,0.0,0.0,0.0,0.0,0.0,0.0,0.0,0.0,0.0,0.0,0.0,0.0,0.0,0.0,0.0,1892.1725387904792,1932.931902534407,1925.7947859242977,1922.721756037766,1900.6058811332523,1926.5604812422837,1927.1376545406877,1922.5053622615603,26.061679262314605,-0.7431893929582064,0.4608151056094532,0.32239209365462107
24,0.25000000000000006,-5.705704424075183,2.894007007837215,0.6677407660541821,0.9526145005124071,0.261538002914941,0.1526276270802561,0.02878009549344361,1.2192286188762456,-2.348526507413964,1.8364824500310784,-1.2189349289894809,0.13579087239787316,0.2718401131697271,7.668409389822939,-12.302376502645984,10.940281374695271,0.0,0.0,0.0,0.0,0.0,0.0,0.0,0.0,0.0,0.0,0.0,0.0,0.0,0.0,0.0,1900.396351474115,1953.1050684109803,1937.6976563820108,1937.1466823997566,1910.2784335503557,1945.2705703337188,1939.3125051917996,1936.5877095972583,26.18081246061276,-0.4396045569526371,0.6162823629400037,0.3238600572741974
25,0.26000000000000006,-5.693126272184622,2.8699092203723318,0.6866597104436576,0.9538390757209219,0.2564709414623546,0.15310201785303598,0.031200095233826542,1.296565835501741,-2.4707228167209436,1.9477284188149342,-0.9917807114051692,0.27754236190381937,0.27746163714166366,7.772522686411598,-12.127159533718235,11.215651905646995,0.0,0.0,0.0,0.0,0.0,0.0,0.0,0.0,0.0,0.0,0.0,0.0,0.0,0.0,0.0,1903.4838605496793,1965.8776773158147,1942.6445611674078,1946.1107761857643,1914.4360883918857,1956.4118822378746,1944.7866652114587,1944.4339132625166,26.271259634652868,-0.13413802481213272,0.7733720323220099,0.3262916578984901
26,0.2700000000000001,-5.679769604123498,2.8445985316458344,0.7067021991479395,0.9546090791786004,0.2525516862404901,0.15429625313067205,0.033642502830577556,1.3749540781283422,-2.5911296910609423,2.061026110990565,-0.728911963221673,0.425396868153656,0.282562630799034,7.8866203209044805,-11.959749739705927,11.383637522049739,0.0,0.0,0.0,0.0,0.0,0.0,0.0,0.0,0.0,0.0,0.0,0.0,0.0,0.0,0.0,1905.081119248887,1974.096967300332,1944.6042298120392,1952.5042560808363,1916.729216942995,1963.6755941526344,1947.3575856005489,1949.9690870823256,26.31246262958177,0.1572646596430312,0.9171938888609723,0.32673984727984895
27,0.2800000000000001,-5.665622947514376,2.8180915860688303,0.7278844205397134,0.9548979459664103,0.2499109438515605,0.1562440575160928,0.036086388337717,1.4546097177435227,-2.7100427634664346,2.175558941363434,-0.4465767963956153,0.5775660298607842,0.28733287541970753,8.027059344748677,-11.831067628246483,11.478772198799447,0.0,0.0,0.0,0.0,0.0,0.0,0.0,0.0,0.0,0.0,0.0,0.0,0.0,0.0,0.0,1906.7672004171884,1979.6780896254072,1946.4593986757422,1956.9603261733778,1918.7624724452107,1968.801669301382,1949.408321379166,1954.1448591786746,26.308089536102433,0.41221260922074116,1.0603764658931993,0.3259791932667836
28,0.2900000000000001,-5.650672439692528,2.7904015058440157,0.7502146508563979,0.9546975414229234,0.24860148183779665,0.1589538244997448,0.03851738965690391,1.5357630701758118,-2.827819168412025,2.290488386068405,-0.16063196672280375,0.7261573030010077,0.29172170771460576,8.189068641278663,-11.737154057722243,11.485658329641435,0.0,0.0,0.0,0.0,0.0,0.0,0.0,0.0,0.0,0.0,0.0,0.0,0.0,0.0,0.0,1908.7611858630714,1981.7354606258884,1946.8038308627858,1959.0478497833844,1920.3753866777936,1971.0330768625095,1949.7895552047737,1956.020117548992,26.28451916547138,0.6634945882795588,1.1956626112828759,0.32426505043339154
29,0.3000000000000001,-5.634902029226591,2.7615378702280937,0.7736925049291906,0.9540174081271388,0.24859071144918796,0.1624136120866206,0.04092996189272179,1.6186283589986603,-2.9448162591119122,2.4049487279813344,0.109780964374049,0.8727242429109037,0.295650255935478,8.37230437130243,-11.678410411694262,11.407077021236667,0.0,0.0,0.0,0.0,0.0,0.0,0.0,0.0,0.0,0.0,0.0,0.0,0.0,0.0,0.0,1910.4241263492047,1980.9423290631723,1946.8402066143256,1957.9171892303743,1921.3078539233343,1970.7340239052155,1949.2325439576052,1955.3150002779887,26.23086173352473,0.8980288246641641,1.3063548120110842,0.32350855582464816
30,0.3100000000000001,-5.618293333610311,2.731506455965506,0.7983096363288104,0.952867832358267,0.24981608215540704,0.166607261629535,0.04332250599501892,1.7034679089623264,-3.0614489282948165,2.5182417857200456,0.3713710248405672,1.014519280848043,0.2990873863574457,8.583386032556373,-11.662950484235157,11.264919308788812,0.0,0.0,0.0,0.0,0.0,0.0,0.0,0.0,0.0,0.0,0.0,0.0,0.0,0.0,0.0,1911.4017513062859,1979.3979945364056,1945.6483072652977,1956.3934835585271,1921.8468421138298,1969.50225585099,1947.9591543149322,1953.812942541067,26.154421704682285,1.10076146750387,1.4068787950446522,0.32458602827174404
31,0.3200000000000001,-5.600825348980366,2.700308913301543,0.8240510201394944,0.9512564869007035,0.25222033678562367,0.171490011568929,0.04568559699913371,1.7905241325691683,-3.178104014919055,2.6296884915653616,0.6198251790459649,1.142724787790846,0.3021471073432367,8.816306078453628,-11.683399803548156,11.053470563496592,0.0,0.0,0.0,0.0,0.0,0.0,0.0,0.0,0.0,0.0,0.0,0.0,0.0,0.0,0.0,1912.181868159221,1975.6375151343948,1942.787623538675,1954.5939971747296,1921.7071663668746,1966.4579321207743,1945.2108578043383,1951.8212784642162,26.061916368865614,1.2693922206734038,1.490196390428184,0.32383851101661754
32,0.3300000000000001,-5.5824748499242105,2.6679432258927935,0.8508949231385329,0.9491981684767266,0.2557149204799563,0.17699605045433514,0.048011608262210556,1.8800044156138411,-3.295135584917422,2.7386466239359373,0.8461091344735727,1.2591295365375026,0.3050623639076759,9.06862325371316,-11.737575751145979,10.780326396746531,0.0,0.0,0.0,0.0,0.0,0.0,0.0,0.0,0.0,0.0,0.0,0.0,0.0,0.0,0.0,1912.4002154397986,1970.3239876701257,1939.9897272607345,1951.4218081298827,1920.910940158549,1961.9800259197973,1942.0798210160738,1948.914956363347,25.938835353358655,1.383583480249333,1.5680707992313319,0.32216709437161856
33,0.34000000000000014,-5.56321664843102,2.6344039838008326,0.8788135950226544,0.9467147166444851,0.2601761849948452,0.18305600273163594,0.050300078669875604,1.972093942368388,-3.412865452656294,2.8445566698751312,1.0447539608892826,1.3611582991849072,0.3077778247317311,9.338022682520153,-11.82157189712596,10.454192301458942,0.0,0.0,0.0,0.0,0.0,0.0,0.0,0.0,0.0,0.0,0.0,0.0,0.0,0.0,0.0,1912.824968986607,1963.8844267299303,1936.6814010358269,1947.2342356827455,1920.1152154386093,1956.6303436380363,1938.4236561348198,1945.0031793007308,25.832262722073473,1.4691940415991591,1.6401101176119468,0.3189581810735534
34,0.35000000000000014,-5.543024042213254,2.599683057925137,0.9077736831981329,0.9438394347823028,0.2654359145490204,0.18960041567764666,0.052560241553972584,2.0668994771895224,-3.5314980826848963,2.9468365462505757,1.2027318261095168,1.4528806301515964,0.3101809864603049,9.6147321336284,-11.919952809913426,10.069135890980352,0.0,0.0,0.0,0.0,0.0,0.0,0.0,0.0,0.0,0.0,0.0,0.0,0.0,0.0,0.0,1912.6986719584088,1955.890955595179,1933.440086939316,1940.6074855530737,1918.554422879536,1949.8776927424494,1934.2618635264505,1939.1808524895719,25.720624648092052,1.5313395161977308,1.6829812461478562,0.31696255154586156
35,0.36000000000000015,-5.521869109792861,2.5637703028919687,0.9377370400523926,0.9406088383323209,0.2713116455658167,0.19657305730699132,0.05480909935834508,2.1645919480603992,-3.651271832003301,3.045175954202471,1.326622051967475,1.5361225265366465,0.3121427525824571,9.911624396957475,-12.043754527880424,9.66451517415745,0.0,0.0,0.0,0.0,0.0,0.0,0.0,0.0,0.0,0.0,0.0,0.0,0.0,0.0,0.0,1912.742989794727,1948.967595593926,1930.5926433680718,1934.3976539497328,1917.5745597486025,1943.975141188735,1930.830193080985,1933.613834489043,25.60909468020325,1.558624427209385,1.7171968049943886,0.3169862781943457
36,0.37000000000000016,-5.499722230869913,2.5266534385965698,0.9686629620563573,0.9370588451572831,0.2776502001687441,0.20390155488861725,0.05705473663737086,2.265304472721686,-3.772334817049347,3.1393013007844424,1.4213396939380012,1.6015261807941183,0.31373217805117876,10.217923097994852,-12.176646792034784,9.230610332773725,0.0,0.0,0.0,0.0,0.0,0.0,0.0,0.0,0.0,0.0,0.0,0.0,0.0,0.0,0.0,1912.966748960603,1941.2372462863684,1926.4567866546095,1929.43996910297,1916.4818403595243,1937.4684975014147,1926.6441307671105,1928.7203923163443,25.498710222855024,1.5655813682107722,1.739286098359286,0.31437053674542137
37,0.38000000000000017,-5.476552791301788,2.4883191974242846,1.000508020490858,0.9332316673394174,0.2843056499785863,0.21149977863676742,0.059302580902880875,2.3691143538845227,-3.894753405826234,3.22896776077571,1.4838488398408252,1.6535047118056376,0.31516057779992207,10.530402905097436,-12.313554501507173,8.775296279894373,0.0,0.0,0.0,0.0,0.0,0.0,0.0,0.0,0.0,0.0,0.0,0.0,0.0,0.0,0.0,1912.7354286708496,1933.4702680457624,1923.0130570319313,1924.2084483296362,1915.087408407463,1930.8049050991585,1922.7409928552195,1923.974139391976,25.37082556464306,1.530234271769481,1.7532906818521918,0.31025325334329895
38,0.3900000000000002,-5.452329567864671,2.4487539361711645,1.0332266786103983,0.9291700901610715,0.29114071296553934,0.21929471331597075,0.06156181865125362,2.476066005244331,-4.018535489310045,3.3139950714856417,1.5202116411507198,1.6924050825266161,0.31628877166197145,10.84578940593195,-12.448717209875504,8.304312251710577,0.0,0.0,0.0,0.0,0.0,0.0,0.0,0.0,0.0,0.0,0.0,0.0,0.0,0.0,0.0,1912.3331699510782,1926.3603136069223,1919.149035559747,1919.0154268190117,1913.7200410147173,1924.65240031,1918.61594043911,1919.038859121183,25.285779597675372,1.4627206502785524,1.7656128040985262,0.3034453550019098
39,0.4000000000000002,-5.427021292812601,2.4079444796519756,1.066771483294229,0.9249232662563521,0.2980134927222559,0.2272194013454559,0.0638455428779158,2.5861122744101754,-4.143565419028617,3.3941613442876033,1.522153591448671,1.7204496017685207,0.31692105274830645,11.152832226997145,-12.566924268438306,7.810247534239867,0.0,0.0,0.0,0.0,0.0,0.0,0.0,0.0,0.0,0.0,0.0,0.0,0.0,0.0,0.0,1911.6396945708425,1918.487642822945,1915.204765832897,1912.3998216986406,1911.8060754719136,1917.9126844660102,1914.0224543913635,1913.0230143856936,25.20641259214425,1.3783054480219068,1.7500719547314172,0.2977867361293686
40,0.4100000000000002,-5.400596753609145,2.3658784845317418,1.101093957775044,0.92054774281022,0.3047682476358175,0.2352209944885741,0.06617591851880933,2.6993408125281664,-4.269848532918181,3.469561912020744,1.4912095542986645,1.7416576499951162,0.31682027099456295,11.47489536776014,-12.69085220190469,7.339131143540012,0.0,0.0,0.0,0.0,0.0,0.0,0.0,0.0,0.0,0.0,0.0,0.0,0.0,0.0,0.0,1912.2562694490618,1912.6938225221113,1912.995481548087,1906.6341892015325,1911.521529284684,1913.156258270843,1911.208510416404,1908.0358353539116,25.106457761793518,1.2488712646558986,1.746436501494462,0.29612661301484683
41,0.4200000000000002,-5.373023807851342,2.322543706509805,1.136147019476665,0.9161019604473261,0.3112740676991824,0.2432369019963634,0.06856721045647166,2.8157905648405444,-4.3972948719432186,3.540285898117163,1.4352206133970904,1.7464357930548546,0.3160364250058516,11.795697727635446,-12.799235981530543,6.87295768524443,0.0,0.0,0.0,0.0,0.0,0.0,0.0,0.0,0.0,0.0,0.0,0.0,0.0,0.0,0.0,1913.3532431967296,1906.6093653122198,1909.8320780575543,1902.7108424871935,1911.4726415013704,1908.2066733338208,1908.091989345313,1904.1415466593628,25.006358862100598,1.1298319365711735,1.7400983072292306,0.2916428411005547
42,0.4300000000000002,-5.344270745221287,2.277929786190358,1.1718837212103685,0.9116505067948675,0.3173963367325274,0.2512094909605057,0.07104020369338067,2.9353387351530205,-4.52562105428209,3.6062811394690546,1.3439240076629684,1.7478192421636165,0.31495163034755225,12.099953658802232,-12.873046624420681,6.399594038036582,0.0,0.0,0.0,0.0,0.0,0.0,0.0,0.0,0.0,0.0,0.0,0.0,0.0,0.0,0.0,1912.6461190775196,1899.9791162603976,1908.1006939296494,1896.7420152667064,1909.8191398829763,1902.4086484195818,1905.3641336575608,1899.1648181974388,24.894481568739113,1.000476777526099,1.7216606526100116,0.2848716523827391
43,0.4400000000000002,-5.314307167438083,2.232029472741521,1.2082568999703651,0.9072428348942274,0.32303168955282224,0.25911567264866253,0.07362088199394125,3.057879937026945,-4.6545255689836855,3.667598687060348,1.2404598270639247,1.7456159322959415,0.31350125716912897,12.395779712912613,-12.918010266416147,5.936584080465046,0.0,0.0,0.0,0.0,0.0,0.0,0.0,0.0,0.0,0.0,0.0,0.0,0.0,0.0,0.0,1910.6900759477978,1894.959296792306,1904.902945751718,1891.7083418726108,1907.6153100478114,1897.6408308225693,1902.0807561778854,1894.2103475373315,24.8365564185106,0.8317400270013634,1.7138855819222323,0.27443957104500066
44,0.45000000000000023,-5.283103731886715,2.1848386071744708,1.2452201640477256,0.9029154887790807,0.3281295756529441,0.26692715838685593,0.07631837144601056,3.1832873863863433,-4.783673679081681,3.724311656442791,1.1246352844386232,1.7360793337861038,0.3114529554770974,12.677032975034308,-12.927528716547343,5.480704041857187,0.0,0.0,0.0,0.0,0.0,0.0,0.0,0.0,0.0,0.0,0.0,0.0,0.0,0.0,0.0,1908.5769289115003,1889.583064732507,1900.4099951774235,1886.7315489662665,1904.9643983082287,1892.7597674449073,1897.5692587218582,1889.2200240186035,24.783196630324934,0.6457639802812221,1.6901354542114133,0.2656814058271629
45,0.46000000000000024,-5.25063157802722,2.1363555716939895,1.282729034413889,0.8987149738296375,0.33260896929657185,0.2746222379090361,0.07915362154506256,3.311649428680205,-4.9129481190643425,3.7767975602045887,0.9831459303885732,1.7274011911627771,0.3084915426609843,12.97642044635694,-12.933415883586541,5.07503093517192,0.0,0.0,0.0,0.0,0.0,0.0,0.0,0.0,0.0,0.0,0.0,0.0,0.0,0.0,0.0,1908.7554695265756,1886.3359220006505,1899.181277671767,1881.7511605636187,1904.6132151041818,1890.240045792377,1895.5850382678238,1885.2283168117929,24.68788676038241,0.41828423150243677,1.6941571749007927,0.26111901484550737
46,0.47000000000000025,-5.216860868138522,2.0865800256370144,1.3207430196085084,0.894695362717841,0.3363703441727925,0.2821804116424941,0.08215482199810757,3.442991585212462,-5.042124125513549,3.825377624713596,0.8208365854345293,1.7117007668344308,0.3047078411598919,13.272119830439078,-12.909026812374158,4.695730819876065,0.0,0.0,0.0,0.0,0.0,0.0,0.0,0.0,0.0,0.0,0.0,0.0,0.0,0.0,0.0,1909.5143336307744,1882.5395375749204,1897.6456194135849,1878.0729506241166,1904.5571489765211,1887.2514068082194,1893.8533767007593,1881.8409646720197,24.586532243112885,0.2330949194396401,1.7039288016731944,0.25327424442309054
47,0.48000000000000026,-5.181762755399451,2.035515277212101,1.3592236345795614,0.8909115755316549,0.33930044375809665,0.28959428629188716,0.08536347460334272,3.57708600378413,-5.170693225560817,3.8701339817394893,0.627190051845311,1.704895230890482,0.3005350032017184,13.53844641726143,-12.824928913370393,4.319388238965605,0.0,0.0,0.0,0.0,0.0,0.0,0.0,0.0,0.0,0.0,0.0,0.0,0.0,0.0,0.0,1907.4277118450098,1877.632023176584,1897.1380399994098,1871.2299749008268,1901.9476068950978,1882.6687687039646,1892.0184989224504,1876.2786746138288,24.47323428639712,0.070261563287908,1.6969252891146445,0.2434347457521926
48,0.49000000000000027,-5.145310634718736,1.983169934503255,1.3981334543887152,0.8873828489046838,0.3413454417986514,0.2968949214300346,0.08881652133552792,3.71377732365901,-5.298170164415782,3.911260609180038,0.43914265642082023,1.7050120256759866,0.2959100439296058,13.794631704362015,-12.696674404470976,3.9680694545345396,0.0,0.0,0.0,0.0,0.0,0.0,0.0,0.0,0.0,0.0,0.0,0.0,0.0,0.0,0.0,1903.156708724408,1874.8818992878466,1893.8363764616035,1866.1092297308555,1898.2254900673606,1879.3200454404498,1888.8808663028149,1870.9557882533472,24.42594337419295,-0.14813811189957696,1.7157614759537911,0.22886975731313075
49,0.5000000000000002,-5.107479103904128,1.9295571535790117,1.4374373374215201,0.884098361555541,0.3425485699357699,0.3040933325824046,0.09250842885215477,3.852948856916893,-5.424109190346054,3.9489833426159917,0.26321404722999875,1.7015885202219414,0.2906414484659172,14.038432036965087,-12.524539559400694,3.6382346481640404,0.0,0.0,0.0,0.0,0.0,0.0,0.0,0.0,0.0,0.0,0.0,0.0,0.0,0.0,0.0,1898.7403905843514,1871.6525804998535,1887.9445974347188,1862.3842040789882,1893.9753868839593,1875.853684004232,1883.641034342451,1866.5276905989306,24.380652504645035,-0.3841743143608306,1.7431173202310084,0.2173409642308209
50,0.5100000000000002,-5.0682427249546755,1.8746933115547424,1.477103522113886,0.881066826823431,0.34288995052049176,0.3111980630194324,0.09645462185037254,3.9947951513044804,-5.54836961978712,3.9838208857301756,0.06568677057269455,1.7081548662085295,0.28435124288869623,14.314696486608103,-12.348678066613772,3.372290003771816,0.0,0.0,0.0,0.0,0.0,0.0,0.0,0.0,0.0,0.0,0.0,0.0,0.0,0.0,0.0,1897.9024652092753,1870.3493279587349,1887.3506663343103,1857.2879252543091,1892.9104050580606,1875.0185447244369,1881.9618455271968,1862.819005566737,24.275025142464955,-0.6445497069705777,1.8158451260192037,0.21082589612092298
51,0.5200000000000002,-5.02757401198476,1.818596343801624,1.517105445130925,0.8783091977377047,0.3422789967994813,0.31823989502716227,0.10070457155656312,4.139418191648268,-5.6706688029560475,4.016184842718614,-0.14980507401586038,1.7235228998688026,0.27721112994602337,14.592856609922933,-12.13424780522665,3.139172768696241,0.0,0.0,0.0,0.0,0.0,0.0,0.0,0.0,0.0,0.0,0.0,0.0,0.0,0.0,0.0,1897.088886300767,1868.652692631296,1887.5792360890093,1852.489680206201,1891.8102925222558,1873.560969620189,1881.470967955248,1858.8720506197371,24.149940798629167,-0.8589216589020332,1.9121465118780354,0.2010820767770586
52,0.5300000000000002,-4.98544621051145,1.761288842466757,1.557419016264867,0.8758304365894084,0.3406199830582975,0.3252784459018416,0.10532334079706303,4.286562683659173,-5.790355121196018,4.046155811203092,-0.38670347462433596,1.7642470248930155,0.2697600581098557,14.836212161727147,-11.843577880758183,2.905210802800262,0.0,0.0,0.0,0.0,0.0,0.0,0.0,0.0,0.0,0.0,0.0,0.0,0.0,0.0,0.0,1892.107801145489,1865.641874669345,1887.9032856776644,1844.2247953863093,1887.0360743047963,1870.0394969752385,1880.2523874334663,1852.0780689550274,24.016062539374115,-1.0274830501145145,1.977129887206998,0.18904330837927213
53,0.5400000000000003,-4.941835144668023,1.7028002498786652,1.5980208487152272,0.8735888249642996,0.33788035746781775,0.33241358233921986,0.11036593320096953,4.436057800940474,-5.906790073712207,4.07386720641487,-0.6115304863566211,1.8290085716796798,0.26196075430691956,15.06971891632336,-11.493525595476228,2.688358496350851,0.0,0.0,0.0,0.0,0.0,0.0,0.0,0.0,0.0,0.0,0.0,0.0,0.0,0.0,0.0,1884.4504650078063,1864.2132168519004,1885.0689600677113,1836.9956391512915,1880.5512214156277,1867.3211293417207,1877.2158596363322,1844.975430096573,23.965624455313467,-1.2720383793809358,2.0802894164787826,0.17127401300212955
54,0.5500000000000003,-4.8967175475269755,1.6431658291797213,1.6388892902639594,0.8715168740997169,0.33413742505083915,0.3396990558020491,0.1158234467931675,4.587866889943464,-6.019437544683836,4.0995080175184,-0.8091746868662606,1.8931200625073894,0.25359662669458044,15.301393613249559,-11.09308215130067,2.489741451184635,0.0,0.0,0.0,0.0,0.0,0.0,0.0,0.0,0.0,0.0,0.0,0.0,0.0,0.0,0.0,1877.6537557248325,1861.5250931038242,1877.7937989505601,1833.1882100722796,1874.269865747568,1864.0536928321224,1871.1080529436636,1839.9090556937326,23.945814323615437,-1.4715554269056832,2.207801918852792,0.1538323631565923
55,0.5600000000000003,-4.850068732298303,1.5824246718060773,1.6800058173745827,0.8695822556758733,0.3293859281454747,0.3471580614807835,0.12170822199962027,4.742387809916206,-6.128117014088388,4.123581615516688,-1.031332226822546,1.97483400222876,0.2441601050358956,15.589816915158927,-10.685182539377891,2.3539927018330076,0.0,0.0,0.0,0.0,0.0,0.0,0.0,0.0,0.0,0.0,0.0,0.0,0.0,0.0,0.0,1875.9117954242458,1860.8156323717108,1877.7390757555904,1827.1058256139406,1872.4048385858182,1863.7759845171252,1869.5558161843392,1835.7442457602153,23.85947776314573,-1.625939476824513,2.4192206136074828,0.14241549562061442
56,0.5700000000000003,-4.801859462538792,1.52061760469959,1.7213572086075306,0.867739387118441,0.32358184755237057,0.35485764512747875,0.12805934433881613,4.900004224367692,-6.232555781112555,4.146535371673649,-1.2410252158261466,2.0764289159313236,0.23358799833306607,15.909296387220273,-10.241757974398524,2.2540951149299104,0.0,0.0,0.0,0.0,0.0,0.0,0.0,0.0,0.0,0.0,0.0,0.0,0.0,0.0,0.0,1873.229773691678,1863.3778644826866,1877.866001284077,1823.7337057014686,1870.8341147415522,1865.267197296357,1869.6037607007058,1832.6626260592,23.72876468145245,-1.854463249573764,2.6449646563373554,0.12914004680276397
57,0.5800000000000003,-4.752059117951244,1.4577901633682284,1.7629324146011192,0.8658678229208486,0.3167781950576862,0.3629431352197509,0.13489540008155337,5.060558760683298,-6.332061906942559,4.168310176821356,-1.4239998937874638,2.2267587217479816,0.22244250187939837,16.196923812171526,-9.716853966039274,2.1301893834158037,0.0,0.0,0.0,0.0,0.0,0.0,0.0,0.0,0.0,0.0,0.0,0.0,0.0,0.0,0.0,1863.1930506317801,1867.1486640672545,1877.6560438791303,1817.171473563412,1863.2683408713508,1866.2191028708523,1868.44894746753,1826.962626812543,23.496665594480405,-2.0556862681058954,2.8062295916929814,0.1134436686165664
58,0.5900000000000003,-4.700639579789886,1.3939955252551393,1.804718481598213,0.8638546783011601,0.3089402790424838,0.3715752852776402,0.14227721579083444,5.223819348490001,-6.425872402406734,4.188674722676548,-1.630841034991826,2.4094739254247446,0.21077888059747335,16.465363646368303,-9.11586441265122,1.983114244582751,0.0,0.0,0.0,0.0,0.0,0.0,0.0,0.0,0.0,0.0,0.0,0.0,0.0,0.0,0.0,1855.9285473192756,1864.8115252328687,1877.2602925817291,1806.9146057378666,1855.7167539205054,1863.9724639657945,1866.2986042456953,1818.4543219463455,23.119632776850136,-2.3237931244170174,2.9921904859314044,0.09060915226220148
59,0.6000000000000003,-4.6475758636262485,1.3292951032483231,1.8466993416234692,0.8616497322389272,0.30000302983488913,0.3807728001039236,0.15023313790069576,5.389304446454964,-6.513062911500883,4.2071904672808715,-1.833694184242963,2.581788020995313,0.1984260610401132,16.67214704171016,-8.416789332096108,1.7834117102246694,0.0,0.0,0.0,0.0,0.0,0.0,0.0,0.0,0.0,0.0,0.0,0.0,0.0,0.0,0.0,1848.349683581092,1855.4518834987343,1867.4064471231125,1798.2480336791018,1847.2414855084835,1855.0965193884997,1857.241099487898,1808.5392060002214,23.1112673558455,-2.5969002835732833,3.1761054252810372,0.06695467218258772
60,0.6100000000000003,-4.592850100042391,1.2637603489870148,1.8888531400932342,0.8592310202527464,0.28988645577587085,0.39048403876069315,0.1587769254843597,5.556075330439089,-6.592568265449915,4.22315315530108,-2.069101106491749,2.7607966927752776,0.1847295588779073,16.77256714642361,-7.608210535285487,1.5079339647323664,0.0,0.0,0.0,0.0,0.0,0.0,0.0,0.0,0.0,0.0,0.0,0.0,0.0,0.0,0.0,1836.3738122358807,1840.4391032170872,1854.6066972513536,1779.6257100017315,1834.2909937412505,1840.475500011955,1842.7403660652562,1791.191847775342,23.359188653241915,-2.876064146121646,3.406444919998538,0.04906133696634182
61,0.6200000000000003,-4.536444177888624,1.1974682852470546,1.9311580002318034,0.8565682017524503,0.2784627414337793,0.4006778358900436,0.16794847187822048,5.725718083241695,-6.66460445999634,4.23766532539224,-2.3215691175673983,2.94165169446791,0.16948810604806983,17.131153600502103,-6.865130397160968,1.411233681946733,0.0,0.0,0.0,0.0,0.0,0.0,0.0,0.0,0.0,0.0,0.0,0.0,0.0,0.0,0.0,1837.593045079096,1839.079723756501,1854.5302815026248,1775.6551209024378,1835.7542574797014,1840.16213946622,1842.8972344167491,1788.502322848858,23.35998925757284,-3.2008816444809707,3.707745923914672,0.03192139544965343
62,0.6300000000000003,-4.478317903807016,1.1304919650868777,1.9736070593779806,0.8535914714309871,0.2656379126245474,0.4113549491587498,0.17777852817300013,5.900449417992677,-6.7294026841472885,4.252182103025963,-2.586433694319971,3.144659884520902,0.15318531960326745,17.697040142062193,-6.125021140216624,1.445632566704269,0.0,0.0,0.0,0.0,0.0,0.0,0.0,0.0,0.0,0.0,0.0,0.0,0.0,0.0,0.0,1845.8365600103277,1849.697556950836,1866.6706923015315,1781.4829920363643,1845.1033710193049,1850.592785176815,1854.5357400168118,1796.1126010848413,23.254887814752333,-3.498692380760322,3.9687323018616585,0.012645252259338116
63,0.6400000000000003,-4.418420974602047,1.0629085684449313,2.0161994967947967,0.8501808411124121,0.25127203707359674,0.4225920829720602,0.18833701760305102,6.079594248033334,-6.7857577866631225,4.266153408066367,-2.8804630886939013,3.391188482633533,0.1360379396008633,18.090595501499607,-5.218737878907476,1.3543063381620257,0.0,0.0,0.0,0.0,0.0,0.0,0.0,0.0,0.0,0.0,0.0,0.0,0.0,0.0,0.0,1843.868979888507,1852.6818846560009,1873.553588885598,1775.0411058186046,1843.3691284956135,1852.3981026397198,1858.7272838283036,1791.823179285699,23.252638253741882,-3.6806319248826393,4.15812197149719,-0.010265977919383107
64,0.6500000000000004,-4.356715662890385,0.9948096326609149,2.0589251036479976,0.8462044287908934,0.2352563379341887,0.43442721938469964,0.19966349494624952,6.261977463511081,-6.832309809640648,4.278702184282429,-3.17497527075661,3.6430285335713983,0.11798223976441664,18.384753639851148,-4.188000897808131,1.1880081670065934,0.0,0.0,0.0,0.0,0.0,0.0,0.0,0.0,0.0,0.0,0.0,0.0,0.0,0.0,0.0,1839.7107609673415,1849.3696285632416,1870.8420906506221,1769.5238402371708,1838.825568470861,1848.991853167775,1856.2542769047468,1785.620149146619,23.30561943523414,-3.823979778303207,4.287329797654884,-0.03508460034772575
65,0.6600000000000004,-4.293169926294659,0.9262978017392967,2.1017688389127365,0.8415478465954706,0.21769884800605213,0.44677453324771343,0.21165289959897057,6.447754528921308,-6.868218430335937,4.28980407991073,-3.4136902699280225,3.8670351891958754,0.09881516039594712,18.734519323795773,-3.0894567479879953,1.043648457654811,0.0,0.0,0.0,0.0,0.0,0.0,0.0,0.0,0.0,0.0,0.0,0.0,0.0,0.0,0.0,1839.1086647927793,1850.266005988031,1863.82351605241,1775.6222130891313,1839.0473848397223,1849.4037807297968,1852.51805757821,1788.4790371486367,23.162031882306962,-3.9587599822331674,4.404208217839255,-0.05617329021829789
66,0.6700000000000004,-4.227748055521132,0.8574831255531717,2.1447166224204683,0.836134436401813,0.1988309472400182,0.4594728591134788,0.22412083888104858,6.6372200821333704,-6.89275778297481,4.299498203808971,-3.6077023367930683,4.049567379515446,0.07844083692840884,19.101019100527417,-1.919421397949428,0.8954436732331317,0.0,0.0,0.0,0.0,0.0,0.0,0.0,0.0,0.0,0.0,0.0,0.0,0.0,0.0,0.0,1842.4214880862644,1851.8833816650774,1857.2597641198663,1785.5682231069377,1842.2554317433292,1851.3023133859126,1848.6474382031638,1795.760058097867,23.493395599948247,-4.1029205735238525,4.5729306953116415,-0.07560715863236668
67,0.6800000000000004,-4.16041853059527,0.7884835585542402,2.1877506243986113,0.8299229275376568,0.17883229716972926,0.4723538476242308,0.23691514614078155,6.828978515479326,-6.90506133095129,4.306854904585629,-3.774143501911507,4.203961852786723,0.05727026667213256,19.266124204615487,-0.6634085112633414,0.6208419101527696,0.0,0.0,0.0,0.0,0.0,0.0,0.0,0.0,0.0,0.0,0.0,0.0,0.0,0.0,0.0,1838.08399274126,1845.7916168303027,1846.4993828875672,1785.8111829764553,1837.412699419368,1844.8982012292927,1838.7261489667103,1794.4020711782823,24.35123323689525,-4.182258579644887,4.682456023924977,-0.09621036211817541
68,0.6900000000000004,-4.091153197930188,0.7194239495999099,2.2308499056054956,0.8228461147442918,0.15778775649502563,0.4853371104848381,0.2499503641460013,7.024856085797965,-6.904693679022081,4.312797995470706,-3.930378960680339,4.36559678851899,0.03565256826327695,19.75871919758454,0.6286233867784929,0.5179975473170728,0.0,0.0,0.0,0.0,0.0,0.0,0.0,0.0,0.0,0.0,0.0,0.0,0.0,0.0,0.0,1848.5678267455958,1859.0325815882907,1858.3346946737263,1798.8614868240504,1849.5258041982834,1858.2357388502176,1850.883443218413,1808.9771780549531,24.75158887115829,-4.18289476977447,4.754520063786609,-0.12227115626364866
69,0.7000000000000004,-4.019892128218059,0.6504346279825027,2.2740096234598552,0.8148315196448367,0.13580560131730607,0.498366493824426,0.2631297609113792,7.2287017518478125,-6.890822683107231,4.319204838297408,-4.048604644641064,4.503626951074427,0.013681843255366043,20.65387395665841,2.026765913373474,0.6044932790540969,0.0,0.0,0.0,0.0,0.0,0.0,0.0,0.0,0.0,0.0,0.0,0.0,0.0,0.0,0.0,1880.450047642871,1891.0704971748328,1885.7886900808826,1836.93288761308,1882.5295065315597,1891.1948619585523,1881.5961404310676,1845.6924241724962,25.05038684761322,-4.181003002560848,4.8136955718098005,-0.1506087966497481
70,0.7100000000000004,-3.946559185243725,0.581656250476922,2.317230922602167,0.8058542292262245,0.1131187523627771,0.5113422236625254,0.27628289741125883,7.438587920364473,-6.8623624384753805,4.324720392328929,-4.110093295248903,4.61314542890601,-0.008939024369946307,21.127610317348555,3.518397181033528,0.4335377841160337,0.0,0.0,0.0,0.0,0.0,0.0,0.0,0.0,0.0,0.0,0.0,0.0,0.0,0.0,0.0,1896.0038500214912,1908.3463790751864,1894.4037741322206,1860.3610982409657,1898.0016668889427,1906.957053169111,1892.0000601544107,1865.5408111728384,25.35206931466121,-4.18977543892052,4.843675036192176,-0.17367983707501042
71,0.7200000000000004,-3.871108272817546,0.513238248073089,2.360495870159269,0.7959161969035282,0.08994447730996998,0.5241757008105034,0.28925288795079995,7.652013081913927,-6.818670209369154,4.327745728067307,-4.142458562316235,4.701126497482972,-0.03238265463335813,21.41739147723598,5.059808715478731,0.14073713854223513,0.0,0.0,0.0,0.0,0.0,0.0,0.0,0.0,0.0,0.0,0.0,0.0,0.0,0.0,0.0,1908.0188297177401,1920.429826206073,1900.6019445766485,1876.5761679131435,1909.822686950731,1918.758026027694,1899.0836966045097,1880.3833707765332,25.704715904845983,-4.210239522006455,4.8852471457616495,-0.19441157346519106
72,0.7300000000000004,-3.793510357427055,0.44533523580511186,2.403775027769984,0.7850474770934716,0.06640779291704323,0.5367663517104766,0.3019475905194265,7.86784035352359,-6.759302685010877,4.3274502194082185,-4.163957795809157,4.7638577476736526,-0.05616220709464302,21.617557110951147,6.641073054834301,-0.2206540186779904,0.0,0.0,0.0,0.0,0.0,0.0,0.0,0.0,0.0,0.0,0.0,0.0,0.0,0.0,0.0,1921.1240716464952,1929.9684021602347,1908.4785680881023,1891.8279954811296,1922.2008260255318,1928.9376236696091,1907.8047567883725,1894.8139333861984,26.051801802487187,-4.163994749023587,4.857970071590049,-0.2140010299269761
73,0.7400000000000004,-3.713744714592052,0.3781060861762523,2.4470323987280347,0.7732806231881507,0.0425717123118415,0.5490230100882704,0.31432222560009654,8.085464490193408,-6.683832516731539,4.323307226300849,-4.184935892894233,4.818051932012043,-0.07984601394713231,21.766444413481523,8.26499327560093,-0.6290335836087735,0.0,0.0,0.0,0.0,0.0,0.0,0.0,0.0,0.0,0.0,0.0,0.0,0.0,0.0,0.0,1935.0106954670111,1941.687815650378,1920.8480187025566,1906.5719538601145,1936.0163431650599,1940.891043103798,1920.208566853177,1909.7115386144771,26.34043743326571,-4.033131150441902,4.827376367011267,-0.23856140950949314
74,0.7500000000000004,-3.6317973559730827,0.3117135238822021,2.4902265247194815,0.7606675875717847,0.018556849128508517,0.560861648653423,0.32630457495705956,8.304015095845717,-6.591957534849034,4.3146903023952925,-4.172264715273877,4.8360655249505085,-0.1031927948034376,21.814193751344746,9.909203160864521,-1.1050126025073936,0.0,0.0,0.0,0.0,0.0,0.0,0.0,0.0,0.0,0.0,0.0,0.0,0.0,0.0,0.0,1949.135758740272,1952.591247526479,1928.6494530533776,1925.6839888270636,1949.8622892515932,1952.067159338403,1930.387535356003,1926.3956226546168,26.679920585748082,-3.9166011205211553,4.836150020803331,-0.26441876279626225
75,0.7600000000000005,-3.54766544910747,0.24632162770878868,2.5333087800592873,0.7472960635734799,-0.005394016227237526,0.5722283496931589,0.33774874354165363,8.522141836748112,-6.483740426812427,4.300798935907663,-4.1023636082729515,4.833619990271163,-0.1264271189011752,21.71589660280482,11.530640376031798,-1.665141871724174,0.0,0.0,0.0,0.0,0.0,0.0,0.0,0.0,0.0,0.0,0.0,0.0,0.0,0.0,0.0,1958.4533042639855,1964.9918850104114,1933.1849184071566,1942.6964141567883,1960.3417101627385,1963.1568975141183,1936.8759221912562,1941.1993435790207,27.037965611537178,-3.8632057309591246,4.794812281633759,-0.28474419211167407
76,0.7700000000000005,-3.461357937178188,0.18209324825975798,2.5762232704306953,0.7332167056647925,-0.029102710794604907,0.5831552274456587,0.34853446811079786,8.73903741105013,-6.359270204723988,4.281054069721557,-4.011671405860218,4.836873130496097,-0.14971747266097843,21.562131205996593,13.146852917532037,-2.274127278435678,0.0,0.0,0.0,0.0,0.0,0.0,0.0,0.0,0.0,0.0,0.0,0.0,0.0,0.0,0.0,1968.8491045716753,1979.8197489794065,1943.940267544365,1956.4836534145516,1971.6197226764832,1977.2945150935557,1947.4907010259901,1955.2715147203746,27.47634160403436,-3.840736107507109,4.742045929040663,-0.30312308506854874
77,0.7800000000000005,-3.3728904998787677,0.11919030478970348,2.618908704957247,0.7184844809797357,-0.05253916457982339,0.5936214415035439,0.358654807529174,8.953995737306284,-6.218692141317751,4.254893715345635,-3.939863528458834,4.820023110787748,-0.17268561305120944,21.331583479478056,14.743521546074945,-2.9400793436007433,0.0,0.0,0.0,0.0,0.0,0.0,0.0,0.0,0.0,0.0,0.0,0.0,0.0,0.0,0.0,1984.5645294454214,1989.6643455502915,1956.5511527771555,1970.7184261562657,1985.6746147372726,1988.8216226472655,1960.1268829539977,1969.571524869321,27.81581868678092,-3.728404652421485,4.645162393928329,-0.32071385920634576
78,0.7900000000000005,-3.2822851136910187,0.05777370490787598,2.6612986550833564,0.7031851075852749,-0.07573136741922742,0.6035253837904414,0.3681746536356079,9.1665573865546,-6.061997920211543,4.2218967951030075,-3.89111233868098,4.787981497935395,-0.19504471141380028,21.066098599911598,16.34897705916316,-3.6410199397733933,0.0,0.0,0.0,0.0,0.0,0.0,0.0,0.0,0.0,0.0,0.0,0.0,0.0,0.0,0.0,2003.3219949264887,2001.565113398854,1973.0164904140609,1986.8820899048478,2003.5063598166284,2001.9414269067663,1976.4061936131907,1986.1727752922761,28.084047314010775,-3.530948479898,4.554843129301333,-0.34142378680401064
79,0.8000000000000005,-3.189571402591401,-0.001997557080893093,2.7033217989846685,0.6874240132076022,-0.09860342517256553,0.6128050432837568,0.3770882781734082,9.37540126405961,-5.889771486343645,4.181420169573459,-3.8095688914891443,4.727388976103731,-0.21669376259054957,20.634971423076465,17.864854834106936,-4.414296305456311,0.0,0.0,0.0,0.0,0.0,0.0,0.0,0.0,0.0,0.0,0.0,0.0,0.0,0.0,0.0,2016.4505965441206,2012.350106797692,1981.5219557899081,2004.1701318855814,2016.739416745928,2012.3181531508287,1986.8270744196586,2001.2096827171763,28.43289387634955,-3.364139806165931,4.543677139376812,-0.3617273120320072
80,0.8100000000000005,-3.094794136749452,-0.05997303127533894,2.7449001498845607,0.671332740210016,-0.1209454677905049,0.6214869386116991,0.3852772130273283,9.579059628066567,-5.7030181578327666,4.132851924065871,-3.672080454724844,4.65439398289449,-0.23779148173103262,20.069058453055177,19.271747995462718,-5.2432752875697375,0.0,0.0,0.0,0.0,0.0,0.0,0.0,0.0,0.0,0.0,0.0,0.0,0.0,0.0,0.0,2023.7786151869595,2024.3241780781332,1986.302574071735,2019.0939369469127,2025.425542556349,2022.733751785194,1993.2455729539104,2014.2267701388319,28.796865060442794,-3.2953341011725517,4.462831915846254,-0.37761381372182734
81,0.8200000000000005,-2.9980083978788175,-0.11601065275384287,2.7859509766470696,0.6549635699680285,-0.14264711765100227,0.6296862747550545,0.3926445176310231,9.777066387701426,-5.502263534097052,4.075871267491686,-3.522432933589849,4.609475026016569,-0.25839102720899504,19.490652185158552,20.647801270185617,-6.0975501444593405,0.0,0.0,0.0,0.0,0.0,0.0,0.0,0.0,0.0,0.0,0.0,0.0,0.0,0.0,0.0,2032.195589343819,2040.3533163788738,2000.0327014872425,2030.308690109151,2035.2594511020172,2037.650142836958,2005.8242499876785,2026.779161010581,29.264110164078716,-3.277216269872627,4.325435646448305,-0.3917470465310767
82,0.8300000000000005,-2.8992724376515855,-0.1699728489338892,2.8263884393996204,0.6383394578887641,-0.16376381017797995,0.6374228784597207,0.39924456789591184,9.969016535744721,-5.2880412654000475,4.010119772472672,-3.4129079067758568,4.547559772961602,-0.278272434629362,18.860946360026887,21.9625090522948,-6.9887993813368965,0.0,0.0,0.0,0.0,0.0,0.0,0.0,0.0,0.0,0.0,0.0,0.0,0.0,0.0,0.0,2048.344137239653,2049.126334874545,2014.5013681320977,2042.5765084811967,2049.077905789502,2048.793821582286,2019.7915167948083,2039.5815793072022,29.564051615631058,-3.1862141260771932,4.190107576459349,-0.40559739578284165
83,0.8400000000000005,-2.7986479335266017,-0.2217262477811707,2.86612346322202,0.6215576485950095,-0.18437394671114024,0.6445527665975719,0.4052456888340906,10.154759858711053,-5.0605148875445405,3.9353575958293208,-3.346395590768223,4.452647759622773,-0.29727820806913446,18.229000755303204,23.279990471102963,-7.895985982445453,0.0,0.0,0.0,0.0,0.0,0.0,0.0,0.0,0.0,0.0,0.0,0.0,0.0,0.0,0.0,2070.3630332883213,2058.579342087515,2031.3766189859166,2059.44253550413,2069.0397980781595,2060.697038706223,2036.7536128105305,2056.669109194119,29.79622346231605,-3.0288271056900262,4.032248250231098,-0.4221967870229846
84,0.8500000000000005,-2.6962019092026757,-0.27114295751631634,2.905064574491574,0.6047345271611271,-0.20446252745878796,0.6509901391640058,0.4107347869801155,10.33307156629018,-4.820995422785592,3.8512953475823855,-3.265695203200916,4.340641708213379,-0.31542983489774346,17.433580122037995,24.412379720288868,-8.83300040829127,0.0,0.0,0.0,0.0,0.0,0.0,0.0,0.0,0.0,0.0,0.0,0.0,0.0,0.0,0.0,2082.141535765648,2067.414863495743,2040.6148604591326,2072.707087953923,2081.0165284657855,2068.81816011069,2046.6672670759808,2068.6806589174016,30.15055158686924,-2.856596542432013,3.981463955145377,-0.4367166971334082
85,0.8600000000000005,-2.5920149000582215,-0.31811101148322574,2.943117925973395,0.5880027950858613,-0.2239067380131351,0.6567632438633082,0.4156687709627423,10.502824062737838,-4.57100913738233,3.7578021052879667,-3.1478135152390734,4.208399916113874,-0.3329560279836911,16.549709076414842,25.40350144840975,-9.774786744347619,0.0,0.0,0.0,0.0,0.0,0.0,0.0,0.0,0.0,0.0,0.0,0.0,0.0,0.0,0.0,2089.7404304964048,2075.9652629916,2044.7545757996402,2085.236305673939,2089.124266696539,2076.6557480414713,2052.3517503654166,2079.413817664846,30.48785042978109,-2.769539383656097,3.8621863664589613,-0.44760532447698437
86,0.8700000000000006,-2.486173343016116,-0.362528673129823,2.980189349801498,0.5714226272499041,-0.24262928008713044,0.661996655677369,0.4199614760703619,10.66403019097717,-4.310931498289641,3.654914177393966,-3.004732048641913,4.113267186931979,-0.3497872945254365,15.701751311551604,26.396859933008443,-10.713484952723729,0.0,0.0,0.0,0.0,0.0,0.0,0.0,0.0,0.0,0.0,0.0,0.0,0.0,0.0,0.0,2096.4895032449176,2092.871202821717,2058.573866444212,2096.23543013288,2098.229163864902,2091.6204798530143,2065.247273811275,2091.662807650874,30.9359321838084,-2.8046678825167293,3.6028838394449783,-0.4580964562895503
87,0.8800000000000006,-2.3787628866487394,-0.4042976408536783,3.016184686384668,0.554992408787212,-0.2606689549664997,0.6667632497205285,0.42362942641813894,10.816553567710805,-4.041423223151646,3.5425777225206168,-2.8903425689193574,4.005981105338525,-0.3657141997680522,14.822052659681617,27.299218459678976,-11.658174990480052,0.0,0.0,0.0,0.0,0.0,0.0,0.0,0.0,0.0,0.0,0.0,0.0,0.0,0.0,0.0,2109.7718066240527,2101.8608151401627,2071.5299176689086,2107.6863678574805,2109.6414614886285,2102.4526863788765,2077.879095592227,2103.3593302874388,31.175877309063367,-2.8231264567400873,3.376253220243712,-0.4689776907336239
88,0.8900000000000006,-2.2698703123550366,-0.44332527822436185,3.051009310796595,0.5388225082712346,-0.2780874142290993,0.6708769519712596,0.4269213158667776,10.960481771585913,-3.7626551473399417,3.4207890151041234,-2.848426647043359,3.83117801757229,-0.3807061745058783,13.964246848248152,28.217029387265224,-12.59520829972649,0.0,0.0,0.0,0.0,0.0,0.0,0.0,0.0,0.0,0.0,0.0,0.0,0.0,0.0,0.0,2134.9593290619205,2105.919387249081,2085.736129522764,2124.8271033688097,2130.617550858495,2111.2170565859774,2092.5560881597135,2120.3514310439905,31.349585039311872,-2.962569523000576,2.9600062599900636,-0.48368983009784416
89,0.9000000000000006,-2.1595848048354083,-0.4795252858002361,3.084569956970932,0.5230399399479788,-0.2949217261238344,0.6741420244139398,0.4300964166305362,11.094953951391227,-3.476252530850738,3.289861169721057,-2.8330631037872385,3.6352782712742533,-0.3949432300643878,12.981894373643499,28.90461605961292,-13.486707570902645,0.0,0.0,0.0,0.0,0.0,0.0,0.0,0.0,0.0,0.0,0.0,0.0,0.0,0.0,0.0,2147.712905580952,2109.4142882406513,2094.6947262666013,2133.6445322834206,2142.641974570805,2114.8306223273644,2100.788089313915,2129.1619111177592,31.53848343036138,-2.873527732979332,2.69016193186111,-0.4930079705598611
90,0.9100000000000006,-2.048005280600407,-0.5128300554580881,3.1167779435012033,0.5077974350014813,-0.3111809646217879,0.676335160492288,0.43345002358385093,11.219197936462725,-3.1837943598826968,3.1503823943426728,-2.8934977738018524,3.3407761410175536,-0.4087594192645504,11.940236870618293,29.46813176542573,-14.305211323482947,0.0,0.0,0.0,0.0,0.0,0.0,0.0,0.0,0.0,0.0,0.0,0.0,0.0,0.0,0.0,2166.6607185797843,2102.161975333233,2096.527397269472,2143.7097713804546,2156.460282656875,2112.8063784430506,2103.8332092907694,2137.762366195949,31.543010176010696,-2.5666139826688945,2.407105046084343,-0.4964276494501343
91,0.9200000000000006,-1.9352356915280562,-0.54318265221472,3.1475518522174135,0.49328326656826754,-0.3267608975467962,0.6773920838791372,0.4370799691773025,11.332951859167224,-2.885894352357694,3.0031890813405773,-2.8767808474832846,3.060451637634014,-0.4220017203709439,10.889036163323595,29.98971520696392,-15.038114200489172,0.0,0.0,0.0,0.0,0.0,0.0,0.0,0.0,0.0,0.0,0.0,0.0,0.0,0.0,0.0,2168.6278672578055,2112.438566732008,2100.229456457131,2153.4358620506077,2162.481744254307,2118.822201089159,2108.7039760808557,2146.4323244127977,31.162089485424598,-2.3752735936569045,1.99806792484275,-0.5002971708270985
92,0.9300000000000006,-1.821382928595533,-0.5705359582226506,3.1768193753532312,0.4796786637766003,-0.3414086558554279,0.6776264414798661,0.4406482894915389,11.435784406311457,-2.584272414074192,2.849272113539438,-2.720614176323967,2.7776354279431477,-0.4339681187060467,9.796047160200771,30.28983767323501,-15.668395585700434,0.0,0.0,0.0,0.0,0.0,0.0,0.0,0.0,0.0,0.0,0.0,0.0,0.0,0.0,0.0,2159.4326925901614,2121.174407751669,2092.475696097936,2163.329109514281,2156.677933689699,2123.4517213715703,2104.7512233410066,2152.17783358392,30.624074363465525,-2.1904197017274503,1.6839308665310961,-0.5047706083272925
93,0.9400000000000006,-1.7065589909745476,-0.5948694017209514,3.204519484291883,0.4672461793005542,-0.35488947350403327,0.6771984332142834,0.44400084636989634,11.527123613182068,-2.282536475181879,2.68994310321641,-2.5538558625654684,2.43801790991704,-0.4444493474138923,8.646765308077065,30.17853035580842,-16.151309344662135,0.0,0.0,0.0,0.0,0.0,0.0,0.0,0.0,0.0,0.0,0.0,0.0,0.0,0.0,0.0,2149.2122215759805,2105.527032165477,2073.213964609933,2158.9715558376774,2143.327164075194,2109.7862429542624,2086.515087285431,2145.5779128379895,31.04480777004251,-2.0721944970571977,1.259495394725249,-0.5136770448249757
94,0.9500000000000006,-1.5908786930913956,-0.6161968318829116,3.2306050937736157,0.45612643636242056,-0.3671458564190482,0.6761399279501341,0.4471994991021679,11.607144772082169,-1.983394137922155,2.5265870882947414,-2.378480120533805,2.1115125227950693,-0.45363965511095505,7.544220002802859,29.85181555585803,-16.50077337472,0.0,0.0,0.0,0.0,0.0,0.0,0.0,0.0,0.0,0.0,0.0,0.0,0.0,0.0,0.0,2129.502580495115,2088.209537349438,2055.358772081447,2141.528186687294,2124.232701833008,2091.3007442105195,2067.2204924348725,2128.846631746354,31.637053840200675,-1.77366962097498,1.0276983989027824,-0.5180471083656686
95,0.9600000000000006,-1.4744439877854847,-0.6345257677684953,3.255036829061475,0.44638079867509867,-0.37819176472974897,0.6744563389941117,0.45035965456004057,11.678511304868818,-1.6816643844248567,2.359083632609957,-2.232044510555076,1.7401790326325512,-0.46210343666390213,6.780852402977544,30.32448586362535,-16.918104886367136,0.0,0.0,0.0,0.0,0.0,0.0,0.0,0.0,0.0,0.0,0.0,0.0,0.0,0.0,0.0,2147.2851031781042,2095.874947735825,2066.1621771712776,2156.347602273032,2141.0677756697455,2103.226347722229,2080.3948600555573,2144.4279669562147,31.929010355474365,-1.3808471952809676,0.8282058061790111,-0.5188093488503163
96,0.9700000000000006,-1.3573311515116186,-0.6498082649710345,3.2777730592230614,0.4380632901555508,-0.3880067876494039,0.6722748092930706,0.45342901026075727,11.742951358939608,-1.373869031132084,2.187559949372804,-2.009402310313574,1.4327461199856657,-0.469791522417114,6.132747814818984,30.970744796000815,-17.29652553808103,0.0,0.0,0.0,0.0,0.0,0.0,0.0,0.0,0.0,0.0,0.0,0.0,0.0,0.0,0.0,2157.2235042097923,2124.956876516137,2087.916885429212,2174.887001659724,2156.409302205028,2127.455113009615,2101.9726280353143,2163.799227569328,32.1828897987757,-1.1019637700931149,0.5122926911142482,-0.5191365261922347
97,0.9800000000000006,-1.2396068850539361,-0.6619885167445435,3.298777903009578,0.43116015501716204,-0.39656424181260874,0.6699501541254648,0.45607511862458977,11.800847463373412,-1.0616482595055272,2.012986379232714,-1.7065688562828512,1.171009139453743,-0.4764326625944523,5.50330059000359,31.328054682082218,-17.56045162520614,0.0,0.0,0.0,0.0,0.0,0.0,0.0,0.0,0.0,0.0,0.0,0.0,0.0,0.0,0.0,2156.8426840401926,2144.927095906364,2098.123134490462,2186.4082244195997,2158.667351829747,2143.8319427355764,2112.60236912065,2173.9812530619374,32.277641979650376,-0.8653238078135863,0.2859021168290729,-0.5197887659974669
98,0.9900000000000007,-1.1213335070444488,-0.6710307154682698,3.3180251091502972,0.4257222722917818,-0.4038376248692013,0.6676242536855613,0.4582069134196054,11.852935311491777,-0.746374126140971,1.8361405273083014,-1.4195634900469467,0.8834863981985794,-0.4820430027018625,4.968167076974339,31.608452442369316,-17.758702078314315,0.0,0.0,0.0,0.0,0.0,0.0,0.0,0.0,0.0,0.0,0.0,0.0,0.0,0.0,0.0,2166.659619059896,2151.2864844540954,2105.4295459260165,2197.293657699619,2165.969305031984,2152.5803649475633,2120.2526517756305,2184.333085224659,32.22945241877454,-0.7712932290811879,-0.029579877338620386,-0.5273498641821452
99,1.0000000000000007,-1.0025648488009813,-0.6769107544092899,3.3354960567664342,0.4217343759969984,-0.409883357422038,0.6652840672674348,0.45992701513496637,11.90003733490899,-0.4294649144702549,1.6578830057755867,-1.1567300939532597,0.6242064215347026,-0.486765009042115,4.509429846864421,31.72322879731937,-17.864240589239298,0.0,0.0,0.0,0.0,0.0,0.0,0.0,0.0,0.0,0.0,0.0,0.0,0.0,0.0,0.0,2168.929528692255,2155.0906157615036,2113.2464362263154,2197.374297166152,2168.414035340144,2155.728019019498,2125.6226554262416,2186.1131726773538,32.44449857758296,-0.5851317016974159,-0.09297356657440575,-0.5298620681872435
100,1.0100000000000007,-0.8833469546387465,-0.6796202647637631,3.351181224436044,0.4190911048378088,-0.4148339343600723,0.6628345239047979,0.46143888725276266,11.942902553993688,-0.112485343950685,1.479138924242612,-0.9766018151227065,0.33829903055246713,-0.4913244462728214,4.120137092311182,31.689410520349444,-17.87397375491384,0.0,0.0,0.0,0.0,0.0,0.0,0.0,0.0,0.0,0.0,0.0,0.0,0.0,0.0,0.0,2174.5165053187175,2147.161763457424,2114.5696167888295,2192.9728516137884,2170.4136308552675,2151.0230114458145,2125.562614878363,2182.4515355251096,32.42524433804176,-0.3624060483149294,-0.013574075891328474,-0.5274420160092012
101,1.0200000000000007,-0.76371708397418,-0.679155054485525,3.365078203811454,0.41760954001847256,-0.4188556328939576,0.6602784417769149,0.46281163576903644,11.982625511499704,0.20580955705097675,1.3002622216240634,-0.7899585935681046,0.1531158534294252,-0.4956639396982004,3.8522664791234007,31.881215792318145,-17.878291444916925,0.0,0.0,0.0,0.0,0.0,0.0,0.0,0.0,0.0,0.0,0.0,0.0,0.0,0.0,0.0,2173.174001751803,2161.8081667221213,2130.769427776276,2190.991912760294,2173.869198121292,2161.6116436545185,2138.856503823098,2184.0232683819945,32.53844691508709,-0.24781592851619516,-0.02223073520718801,-0.5239089655437326
102,1.0300000000000007,-0.6437029808037288,-0.6755032344912201,3.377188183130301,0.41695439450652977,-0.4221815328031575,0.65788508410278,0.4637876694962335,12.019818847870702,0.5245237386345212,1.1218444260395068,-0.5861684049426639,0.08307326435180272,-0.4993335806990131,3.6223176554930347,31.863183217625824,-17.812114403244816,0.0,0.0,0.0,0.0,0.0,0.0,0.0,0.0,0.0,0.0,0.0,0.0,0.0,0.0,0.0,2160.494127284534,2172.7949547484045,2140.7942886500946,2181.745945015153,2164.655132296098,2168.4568575268263,2145.930689058138,2176.8919211636103,32.95323478100512,-0.2010340016313802,-0.007113468247450291,-0.5216174038267792
103,1.0400000000000007,-0.5233266461115598,-0.6686622715455472,3.387516603160558,0.4168621252859137,-0.4250079747641948,0.6557796613327858,0.46427063839015903,12.055200061911581,0.843779057609114,0.9439152263366771,-0.42751579778778703,0.037320797930324896,-0.5022415942510563,3.472404739550683,31.94190331923119,-17.769580930680927,0.0,0.0,0.0,0.0,0.0,0.0,0.0,0.0,0.0,0.0,0.0,0.0,0.0,0.0,0.0,2162.926753810925,2176.347413932972,2150.169617539227,2180.823627655568,2165.5075197155957,2173.974460501133,2154.4889862233026,2177.108090049478,33.10224648102519,-0.2512352357210513,-0.15285820755248822,-0.5273497750921975
104,1.0500000000000007,-0.4026017866083716,-0.6586168712987119,3.3960659855089457,0.41715245805218265,-0.42749200076213206,0.653901433260726,0.4643784357665412,12.089658787882378,1.1658067403060786,0.7659404072417051,-0.3220527938652121,0.018815601617032652,-0.5045155044931081,3.409954050642483,32.291590557920415,-17.79248046052173,0.0,0.0,0.0,0.0,0.0,0.0,0.0,0.0,0.0,0.0,0.0,0.0,0.0,0.0,0.0,2176.935445474697,2188.0263845085433,2169.8327246995427,2188.688046981331,2179.2543473094483,2186.9314488356463,2172.6231618453608,2187.4002561538186,33.36283569139273,-0.2123168760071529,-0.11831892178519454,-0.5291850774033522
105,1.0600000000000007,-0.2815359261119865,-0.6453403255624401,3.4028359958789802,0.41773678662914704,-0.4297337060100519,0.652070998286499,0.46435797851363486,12.123388246971693,1.4896688720653797,0.5881328688770426,-0.29130109391939935,-0.05755012233099075,-0.5068697742372378,3.33719613610306,32.412270737989246,-17.755654074298466,0.0,0.0,0.0,0.0,0.0,0.0,0.0,0.0,0.0,0.0,0.0,0.0,0.0,0.0,0.0,2191.9714190937275,2184.1804508383166,2174.8748560062186,2193.7706968685256,2189.80727924607,2186.8345757156803,2177.7442216685236,2191.5386355096716,33.24393955011185,-0.14646483187063156,0.14642313836572884,-0.5251767537142568
106,1.0700000000000007,-0.1601357378626321,-0.6288165482584066,3.4078295717296525,0.418566051162448,-0.43178789898328956,0.6501986792818655,0.46433107645944777,12.156568745760548,1.8153862210753096,0.4106469853029022,-0.253240647623215,-0.08211806806105452,-0.5092912736230114,3.2925491343700486,32.62223685601651,-17.724026406080505,0.0,0.0,0.0,0.0,0.0,0.0,0.0,0.0,0.0,0.0,0.0,0.0,0.0,0.0,0.0,2196.825334487073,2196.121929006724,2187.7245933627864,2197.905454787027,2197.8082207763396,2195.8946581489895,2189.037223506215,2197.5565878567054,33.06051808139422,-0.11695235036179238,0.3745882264553253,-0.5185332770020277
107,1.0800000000000007,-0.0384072240563283,-0.609035074939667,3.4110520574783254,0.4193666568472589,-0.4338431921399646,0.6485001468173845,0.46406815376234317,12.188996065369835,2.1406992050732105,0.23400027447336796,-0.20194220911095953,0.021165178577250296,-0.5111930242610789,3.2076377514460575,32.486057913904794,-17.62951521252293,0.0,0.0,0.0,0.0,0.0,0.0,0.0,0.0,0.0,0.0,0.0,0.0,0.0,0.0,0.0,2180.814470633396,2204.366151855038,2195.3710408496086,2184.635467639161,2185.8241909404633,2198.9807794445583,2192.532999434267,2187.2866860262343,32.86713283908708,-0.03298847814239589,0.4056951702190316,-0.5132570679873523
108,1.0900000000000007,0.08364108735749659,-0.5860097727089726,3.412512500868458,0.41983776468638434,-0.43611116862686006,0.6471764866484412,0.4633636747431057,12.220516703043144,2.4640222611983114,0.05818494592934845,-0.16191982105064615,0.17669204642374212,-0.5122623307820023,3.1146780456179357,32.261212200513256,-17.563746185067618,0.0,0.0,0.0,0.0,0.0,0.0,0.0,0.0,0.0,0.0,0.0,0.0,0.0,0.0,0.0,2169.338930515562,2202.5570171033582,2195.947692174216,2173.563738204985,2174.3810014812634,2196.904527571377,2192.062622530462,2177.003883472439,32.719614353363774,0.002867433121311519,0.24550931732284126,-0.518262867155246
109,1.1000000000000008,0.20599993651541443,-0.5597630817059231,3.4122171787873112,0.4199995618121413,-0.4385702840792206,0.6462383382370868,0.46220394220825256,12.251110212274499,2.7849384081339656,-0.11722505432376643,-0.09939800074655462,0.2754532874206927,-0.5125871823894544,3.024847312428136,32.01184477209784,-17.541781505364785,0.0,0.0,0.0,0.0,0.0,0.0,0.0,0.0,0.0,0.0,0.0,0.0,0.0,0.0,0.0,2165.9934845575563,2192.166332189184,2184.4594486623523,2173.4058657389596,2168.984934237055,2188.510506737379,2183.8242684121656,2173.4597325610584,32.996217676407134,-0.05332560796572615,0.23718331177938679,-0.5215392987380576
110,1.1100000000000008,0.32866065123203375,-0.5303187064872955,3.4101680418463807,0.4201442062875756,-0.44100761170193536,0.6455095450535375,0.4607695297963104,12.28092303625625,3.1036097724586114,-0.29262037372888566,-0.05115246877420388,0.26004820821446184,-0.5130719384651204,2.955323121698328,31.796514322929514,-17.54810343413715,0.0,0.0,0.0,0.0,0.0,0.0,0.0,0.0,0.0,0.0,0.0,0.0,0.0,0.0,0.0,2172.1628164810013,2176.881453669411,2169.450430779513,2177.737946835553,2171.2282207294343,2177.3305867373037,2171.9143352214464,2174.7774332787635,32.4757681500633,-0.09263993873032973,0.5435378972304455,-0.5195571613978903
111,1.1200000000000008,0.45161788548064935,-0.49768711347435535,3.4063620952620965,0.42038540773863864,-0.4433612653792986,0.6447928974288805,0.4592918644467315,12.310508535517409,3.42295024216253,-0.4687131165915167,-0.053875841237926096,0.251129884747006,-0.5139042234918557,2.9500658089602894,31.968949518550005,-17.64101025623166,0.0,0.0,0.0,0.0,0.0,0.0,0.0,0.0,0.0,0.0,0.0,0.0,0.0,0.0,0.0,2184.072178555223,2182.412922516233,2180.522953662644,2183.1960150031828,2183.8143185451654,2183.5217126731636,2180.804110466219,2183.7907930969877,31.584839106355897,-0.07254249742969449,0.9263022485199148,-0.5137325529289314
112,1.1300000000000008,0.5748677932821794,-0.461873937883798,3.4007952370431958,0.42040907284666784,-0.44587314833083164,0.6441682352664307,0.4577123897596498,12.339300038029767,3.7388866979729105,-0.6445911579958418,-0.07214771507951037,0.3829201209154667,-0.514628133141758,2.8393017126635556,31.434908968678066,-17.58575805067053,0.0,0.0,0.0,0.0,0.0,0.0,0.0,0.0,0.0,0.0,0.0,0.0,0.0,0.0,0.0,2157.0272512500137,2176.8671736942088,2178.3731915601393,2153.5899690411575,2160.4284843209953,2171.84590563133,2172.218608319763,2158.2635623368787,31.564167846407425,-0.030165204643343227,0.984798553474481,-0.5072036887949043
113,1.1400000000000008,0.6983982513474567,-0.4229393523887652,3.3934741332186245,0.41980379829959646,-0.44883026938217946,0.643911603984299,0.45573457897543734,12.366517781939427,4.0466736700220975,-0.819525624592893,-0.07049505376497904,0.6230226337166369,-0.5147457514801608,2.66099254945118,30.514557891038407,-17.494559733396976,0.0,0.0,0.0,0.0,0.0,0.0,0.0,0.0,0.0,0.0,0.0,0.0,0.0,0.0,0.0,2115.7188866029405,2158.405495127731,2159.276848678388,2115.103832483759,2121.779449839818,2149.516657748903,2150.7293584137815,2120.922356964226,31.866783493155037,-0.03801111389964026,0.929058816026685,-0.5130001204961533
114,1.1500000000000008,0.8221947915752026,-0.3809507099657112,3.3844015962543987,0.4185658491160188,-0.45221619533289475,0.6440956950622285,0.4532591733597149,12.392653774100776,4.350807590958045,-0.9952507683318994,-0.0495097626602683,0.7788202451074359,-0.514159440546418,2.577493588535873,30.353010178711948,-17.649825935403427,0.0,0.0,0.0,0.0,0.0,0.0,0.0,0.0,0.0,0.0,0.0,0.0,0.0,0.0,0.0,2118.529127405162,2150.4746452697023,2149.9121424745435,2121.619825108685,2122.162670430987,2146.6644835130605,2147.416617195859,2123.9669849316765,32.17726601643459,-0.16447657460655946,0.7779773825774129,-0.5182657855168146
115,1.1600000000000008,0.9462497595171627,-0.3359191550861292,3.373560746276703,0.41699479032928394,-0.45581119634644096,0.644527741274255,0.4504836166292508,12.418261501310667,4.655723808327297,-1.1733695199323915,-0.04355958768682522,0.8431494109108703,-0.5138497488834503,2.534986237895609,30.517085064650118,-17.926213815435464,0.0,0.0,0.0,0.0,0.0,0.0,0.0,0.0,0.0,0.0,0.0,0.0,0.0,0.0,0.0,2138.1905430747274,2151.1874976860986,2150.9152131285014,2138.8999171806295,2139.2618518707554,2151.159848976451,2150.982128234528,2139.752633221981,31.781075803595932,-0.3254446698321938,1.0287634897205191,-0.5218076271739593
116,1.1700000000000008,1.0705586618811143,-0.2878295736386892,3.360924336863609,0.4153020298930547,-0.45948664217592133,0.6449159081150592,0.4477496187477257,12.443428374214353,4.962443733103956,-1.354382911559248,-0.10234697078599653,0.8132031619358847,-0.5141484319646427,2.4863766718308256,30.703715752335548,-18.218027751727206,0.0,0.0,0.0,0.0,0.0,0.0,0.0,0.0,0.0,0.0,0.0,0.0,0.0,0.0,0.0,2161.5521148007642,2149.508451170342,2155.96379727354,2153.707833669836,2158.4791163609166,2153.711359542931,2156.573620556171,2154.122624143977,31.151932660099018,-0.3191249592653302,1.539589428858644,-0.5219378525033582
117,1.1800000000000008,1.1951140084946161,-0.23668194715128316,3.346468218219623,0.4133110655292461,-0.4633934621524658,0.6451622616387562,0.44520345742435075,12.467384503130551,5.266400517985455,-1.5370684883045966,-0.2085731477845797,0.9119060445320919,-0.5149815602004985,2.329280640790188,30.25430778938354,-18.343001686588423,0.0,0.0,0.0,0.0,0.0,0.0,0.0,0.0,0.0,0.0,0.0,0.0,0.0,0.0,0.0,2142.6193649932825,2144.6903799058423,2157.412943977703,2127.200476657078,2143.0030799124656,2143.066733566359,2150.2745887860533,2133.2615192838816,30.891563362926465,-0.2523660066134588,1.5338821681465793,-0.5155232534933205
118,1.1900000000000008,1.3198994615877822,-0.18252469123597168,3.330180493644016,0.4105195672494521,-0.46787038991556734,0.6456066077098678,0.44245123033723677,12.4893512266208,5.564006158882343,-1.720686113261711,-0.25663865082985154,1.191143671058475,-0.5158578704900824,2.107902068862799,29.54954172879276,-18.44360291183089,0.0,0.0,0.0,0.0,0.0,0.0,0.0,0.0,0.0,0.0,0.0,0.0,0.0,0.0,0.0,2102.0402171411733,2143.1307534387797,2150.720291866387,2091.898373097939,2109.48700005028,2133.7656769795462,2139.8813817718074,2101.011160676505,30.827252297064664,-0.20444281792755797,1.5138211411270242,-0.5238571805579902
119,1.2000000000000008,1.4448942262646223,-0.12541748034344258,3.312047621148145,0.4069568443193016,-0.4728568131498297,0.6464265224946455,0.4392326401065183,12.509275356749974,5.856828128430098,-1.906326207354823,-0.25061159890966683,1.337184061410893,-0.5161994895020163,1.9079786127491616,29.149426793650512,-18.693868905714115,0.0,0.0,0.0,0.0,0.0,0.0,0.0,0.0,0.0,0.0,0.0,0.0,0.0,0.0,0.0,2098.6857578732856,2126.5527554247165,2127.9897585423537,2097.329733653909,2101.219158226623,2123.034003656636,2125.7971215335124,2098.668511612877,31.248671914431775,-0.37093703892692553,1.1221510309249922,-0.5337843391725098
120,1.2100000000000009,1.5700788665226628,-0.06539667677672809,3.2920435279400246,0.4030554845755933,-0.4780293414207723,0.647471621198744,0.4356773173308733,12.527359282559567,6.146979775057714,-2.0950625262794023,-0.2261907078489866,1.4142311772497778,-0.5169246465346865,1.73050803113739,28.92779772680143,-19.031421077431165,0.0,0.0,0.0,0.0,0.0,0.0,0.0,0.0,0.0,0.0,0.0,0.0,0.0,0.0,0.0,2102.571758290236,2118.9425355511507,2115.805484423504,2103.204125702267,2104.243531613994,2117.0574013077803,2115.4858910299236,2103.2386483081973,30.802082420734497,-0.6447087010651857,1.1523272449413962,-0.5480220493002435
121,1.2200000000000009,1.6954369011922157,-0.0024728449321417137,3.2701309948829023,0.39916648570113544,-0.4831666021608015,0.6483714267535607,0.4322391053791213,12.544017764185398,6.43808734394351,-2.2882079498694816,-0.2970017466077475,1.2822949510997126,-0.5185188656075523,1.5978424222904408,29.146478580447166,-19.50323675709953,0.0,0.0,0.0,0.0,0.0,0.0,0.0,0.0,0.0,0.0,0.0,0.0,0.0,0.0,0.0,2140.6474271931816,2109.3203800533743,2115.157824265661,2129.3864506077407,2133.507475145259,2118.058474055429,2119.3849448443502,2126.5697084163107,30.04258317457438,-0.664023482235097,1.6370801147815894,-0.5596340056316953
122,1.2300000000000009,1.8209522374881317,0.0633516660115429,3.2462711471426458,0.39529067569024146,-0.4883128439891757,0.6487751800607986,0.42940262440352356,12.55865670004241,6.726026353387401,-2.484100906572659,-0.46377932851630016,1.2295237048163923,-0.5215313565458758,1.3597925100885533,28.628806718799638,-19.694626227913403,0.0,0.0,0.0,0.0,0.0,0.0,0.0,0.0,0.0,0.0,0.0,0.0,0.0,0.0,0.0,2129.1320428404542,2095.3582055006855,2112.2465315814447,2102.4540660327457,2123.2159763315944,2099.9496273804866,2107.639893479799,2105.741048577183,29.781055838741786,-0.5962116356751719,1.4488018631293689,-0.5519930104972294
123,1.2400000000000009,1.9466004135254396,0.13202022783401168,3.2204465303948484,0.3908808491894132,-0.4938365591741716,0.6489868274009505,0.4267946958667913,12.570485548936599,7.006444135432694,-2.6810079563278424,-0.5529902081367223,1.4146051480293598,-0.5256774135808993,1.0561094573002805,27.791275875161503,-19.773198044847007,0.0,0.0,0.0,0.0,0.0,0.0,0.0,0.0,0.0,0.0,0.0,0.0,0.0,0.0,0.0,2079.2972978536027,2095.6478710745614,2104.509507323831,2057.166307958777,2083.830874371477,2088.531855911191,2094.1301522176964,2065.350192547639,29.75884583148121,-0.49437490489781477,1.3979541410923007,-0.5621342420879674
124,1.2500000000000009,2.072352474794652,0.2034633662524407,3.192644046854837,0.38598511645844163,-0.49966981945405375,0.6492440165154172,0.4240610432688264,12.579468461821218,7.2815472125733685,-2.879921077663864,-0.5684994314914635,1.4244652016847128,-0.5292710438843355,0.7775942814625125,27.370866316883458,-20.019231098404866,0.0,0.0,0.0,0.0,0.0,0.0,0.0,0.0,0.0,0.0,0.0,0.0,0.0,0.0,0.0,2077.0116876698157,2076.329973926993,2076.7498171390157,2067.462385649947,2075.2480634053036,2076.8556882424523,2078.1647131706854,2065.3169154021025,30.323995233451164,-0.7022519531191725,0.6383273397548358,-0.5793905006444586
125,1.260000000000001,2.1981811172127697,0.2776433482241123,3.162837747761294,0.3811132153288428,-0.5054509723568982,0.6494736481958581,0.42125528120646766,12.585843419008096,7.5541394044164125,-3.0818864895395928,-0.5293525264930173,1.4144465184080395,-0.5329757792336747,0.526356239527459,27.17907284974075,-20.34565143044631,0.0,0.0,0.0,0.0,0.0,0.0,0.0,0.0,0.0,0.0,0.0,0.0,0.0,0.0,0.0,2075.864020510739,2076.1370927490234,2067.350383471529,2073.384559380133,2076.431684023694,2075.338941917412,2069.558376937496,2071.1793554893575,29.878145695807607,-1.0372004177647798,0.08319558660096416,-0.6080325959674534
126,1.270000000000001,2.3240622202028374,0.3545544659519058,3.1309901853157953,0.3767379962145815,-0.5108889196762222,0.649268950826071,0.41894011917396684,12.590021255677435,7.828587661840901,-3.2883965371436252,-0.615139711845469,1.0675735767108392,-0.5376628833906946,0.31679694984276807,27.521932164009222,-20.828577090347355,0.0,0.0,0.0,0.0,0.0,0.0,0.0,0.0,0.0,0.0,0.0,0.0,0.0,0.0,0.0,2131.342263976484,2059.072199528672,2061.26534207457,2113.9048898182386,2117.19240325694,2075.8542739053782,2072.4683527148827,2105.027032069622,29.046172590036413,-1.1889045552827622,0.08705507133585721,-0.6339536257128213
127,1.280000000000001,2.449972757286197,0.43420359569874545,3.097064980936595,0.3732678664977839,-0.51576808234065,0.6479675908368816,0.4180817937962484,12.591616624290767,8.100549877919908,-3.4967146137095337,-0.8188155376259912,0.6376871576234998,-0.5445413508773094,0.03348881790898872,27.05889263170569,-20.85987401621514,0.0,0.0,0.0,0.0,0.0,0.0,0.0,0.0,0.0,0.0,0.0,0.0,0.0,0.0,0.0,2137.4787599620154,2028.6974932978817,2043.4859532911094,2099.963004757987,2119.2507691778897,2046.633696466274,2049.542893947933,2092.8008240126233,28.84372976537188,-1.4298531707130726,-0.5601527615222197,-0.6229991411836112
128,1.290000000000001,2.57588401020087,0.5165391022147618,3.0610619848459892,0.37040846373162434,-0.5203020635694113,0.645593841889738,0.4186787837417105,12.590092863051138,8.365376714181627,-3.703546622315708,-0.9918595512973194,0.403547247028141,-0.5537950493201483,-0.295415100966423,26.259453080738737,-20.62465115232559,0.0,0.0,0.0,0.0,0.0,0.0,0.0,0.0,0.0,0.0,0.0,0.0,0.0,0.0,0.0,2094.1288628543925,2019.8785967348863,2030.1096606084443,2053.394399759237,2084.821801939864,2026.377824300286,2028.581204142439,2052.2961488911283,28.8296054281335,-1.5037709624642268,-0.9342582755246778,-0.6321775008756765
129,1.300000000000001,2.701763873268789,0.60149848057083,3.022998038723216,0.3680985979986831,-0.5245233848105209,0.6421701874104389,0.4207090340598358,12.585328225491676,8.626185126663922,-3.909058369848764,-1.201185371801603,-0.02309579864493174,-0.5618076816943501,-0.6264286895341087,26.025766021506413,-20.503833721277065,0.0,0.0,0.0,0.0,0.0,0.0,0.0,0.0,0.0,0.0,0.0,0.0,0.0,0.0,0.0,2101.1255180363437,1992.0535827296637,2009.0582568532134,2061.0939347681015,2082.9236685050696,2010.1685907788947,2017.0964686094821,2052.9913834673875,29.215928952966777,-1.9031569688931267,-2.3192272308711672,-0.6544229531087356
130,1.310000000000001,2.827579212356367,0.6890614304045244,2.9828849208441963,0.3666613884418716,-0.528195206792277,0.6375688292055065,0.4243527280141634,12.577154728072317,8.886446916006474,-4.11328971659269,-1.342451656347924,-0.4180904099185744,-0.5692234187575506,-0.9763931841622053,26.042682395974737,-20.342518390188857,0.0,0.0,0.0,0.0,0.0,0.0,0.0,0.0,0.0,0.0,0.0,0.0,0.0,0.0,0.0,2095.9900805768525,1996.1061530863751,2005.138930159378,2063.0743826675966,2082.9530752886276,2009.4609657092722,2012.7390329752718,2055.9415687624933,27.677162912252406,-1.9637627193515381,-4.491203754888126,-0.6852778355974186
131,1.320000000000001,2.9532950043905433,0.779237672656331,2.940736728405589,0.3666181598624563,-0.5309357276058498,0.6313384117938937,0.4302443350054444,12.565373219251939,9.14954307670192,-4.316000023672288,-1.6163071781159772,-1.2596897278275314,-0.576710659194428,-1.3518688645781651,26.473858487534585,-20.143412069576705,0.0,0.0,0.0,0.0,0.0,0.0,0.0,0.0,0.0,0.0,0.0,0.0,0.0,0.0,0.0,2153.918163126292,1961.858785131989,1982.5139320517674,2107.0279124752888,2122.2938848782896,1998.8891816521643,2004.0254393664613,2088.542531244723,25.79104767998846,-1.857456537731197,-5.873760428688974,-0.7177704154868817
132,1.330000000000001,3.0788734871959234,0.8720175601209894,2.896596246189502,0.36956799389999456,-0.5315746004496652,0.6224454271787542,0.43978361977883024,12.549693283958538,9.40500368241685,-4.5103259817354635,-1.7804084546506451,-2.687929641491125,-0.5860534607513291,-1.7351955451907486,25.331025359422554,-18.99227923393987,0.0,0.0,0.0,0.0,0.0,0.0,0.0,0.0,0.0,0.0,0.0,0.0,0.0,0.0,0.0,2154.413286841888,1854.758958974789,1859.8171759575669,2113.7575454090907,2107.4842352956666,1905.3887206403645,1902.673048188171,2072.853868993101,24.69196567044671,-2.1087261714716767,-6.642205316373591,-0.7038116665785661
133,1.340000000000001,3.2042776106567263,0.9672881587307056,2.8505790208806943,0.37660661319368316,-0.5291466841979509,0.6104996348796725,0.4532785471571361,12.530629491433519,9.647189257280703,-4.690602613237692,-1.8182142353830149,-4.077986804916069,-0.5971477341106217,-2.040005902713915,23.913600381350264,-17.402646139029976,0.0,0.0,0.0,0.0,0.0,0.0,0.0,0.0,0.0,0.0,0.0,0.0,0.0,0.0,0.0,2085.289651083529,1793.854331596853,1772.2045826785288,2057.56989600595,2046.6892928262691,1831.6533996343192,1811.0347175866273,2018.7995538733205,22.246874159087945,-1.9862966922141934,-6.554765888855107,-0.7091234329638915
134,1.350000000000001,3.32947713271072,1.064930895052727,2.802835921195427,0.387060326842007,-0.5238133443761559,0.5956296956728634,0.4701373727657458,12.508842652410177,9.880425432679923,-4.855412679063531,-1.9704311018815324,-5.192304654563093,-0.6053994362827885,-2.297956124055034,23.202968682626945,-15.80232686883054,0.0,0.0,0.0,0.0,0.0,0.0,0.0,0.0,0.0,0.0,0.0,0.0,0.0,0.0,0.0,2022.2456504946904,1770.324796799815,1763.831357281493,1989.1898360209902,1990.0940294820002,1802.3445892307343,1787.1001607652886,1965.1237016834648,19.51251518762486,-2.1372198741380743,-7.534907081510547,-0.7283998676100564
135,1.360000000000001,3.4544478815942794,1.1648350008201847,2.753535782511471,0.3995532865637836,-0.5162698925744521,0.5784695636539641,0.4890762038202585,12.485009250332373,10.09762066958373,-5.001459243409611,-1.9815865386137064,-5.774019348296144,-0.6119468928625593,-2.47157609370241,21.249472666589497,-13.822646801912697,0.0,0.0,0.0,0.0,0.0,0.0,0.0,0.0,0.0,0.0,0.0,0.0,0.0,0.0,0.0,1874.21226946408,1738.8938750066077,1715.7290936387137,1854.4141724816375,1860.2710627559604,1743.8591889148881,1721.8684660605995,1839.935749900266,23.48411040921966,-2.6853383376243145,-9.707353876709394,-0.7369171867426598
136,1.370000000000001,3.5791736422522202,1.2667993637654034,2.702872785566168,0.4134690459355816,-0.506720727934368,0.559275181570238,0.5094003565118123,12.459960925605337,10.291875076813422,-5.128086217092324,-2.070747484346781,-6.5534262968323524,-0.6184830497180189,-2.5675365627755298,18.83712807030946,-11.898277259684953,0.0,0.0,0.0,0.0,0.0,0.0,0.0,0.0,0.0,0.0,0.0,0.0,0.0,0.0,0.0,1784.9078147191276,1603.3022753257646,1581.424589113367,1756.3424099513034,1752.662418754161,1627.852961903056,1600.5563597183377,1728.790986600719,25.74292757517592,-3.4017815267352254,-10.0,-0.7296319595802943
137,1.380000000000001,3.7036349841889464,1.370760921078261,2.651015779692278,0.42935770775855725,-0.49424328966879233,0.5366350501809508,0.532351718624986,12.431561129489447,10.506260136102771,-5.240902435539913,-2.3856488577202204,-7.941320898599229,-0.6222729012893465,-3.020737101826043,22.56358751778187,-10.536107310011644,0.0,0.0,0.0,0.0,0.0,0.0,0.0,0.0,0.0,0.0,0.0,0.0,0.0,0.0,0.0,2002.6184278235346,1668.8752803539626,1683.0269000981611,1948.8459001112174,1954.9638342374278,1746.5577869512383,1735.3325469012698,1919.0786812401755,26.217378196382562,-3.720403398786777,-10.0,-0.7029931549703176
138,1.390000000000001,3.8277889212042457,1.4770230433371152,2.598118882541833,0.44662757694897587,-0.47873665718520314,0.5094800377722695,0.5583593033946789,12.398391668071735,10.749772979350045,-5.334653991153513,-2.8888748040412295,-8.821852156884908,-0.6243742421597299,-3.530999319742989,25.02417941289181,-8.302707389439945,0.0,0.0,0.0,0.0,0.0,0.0,0.0,0.0,0.0,0.0,0.0,0.0,0.0,0.0,0.0,2056.945479654886,1801.9061999663845,1845.9130591427709,1977.3650171145314,2029.910471922528,1843.0267039201321,1854.8969794444865,1978.2730476548472,27.99947420323509,-3.2309337483312204,-9.999999999999996,-0.7311497060793671
139,1.400000000000001,3.9515865486724695,1.5857878398423177,2.544407655208683,0.463599928068844,-0.46130818547153474,0.4784269406124508,0.585984238019875,12.360288406727523,11.003762248878719,-5.403104952845608,-3.2944025510359025,-9.326681001527529,-0.621553715827532,-4.038834790417667,25.467977126638175,-5.625446783955823,0.0,0.0,0.0,0.0,0.0,0.0,0.0,0.0,0.0,0.0,0.0,0.0,0.0,0.0,0.0,2031.8579426102826,1870.2296526621155,1908.2140487798108,1964.6393794170356,2015.4897186027501,1890.3168973530055,1908.147194479757,1966.9913540406671,29.0967163387547,-3.255523648597848,-9.999999999999995,-0.7505156815768412
140,1.410000000000001,4.074972619218376,1.6971403581718012,2.4901559754975944,0.4799266369314152,-0.44204333781432364,0.44479752174531734,0.6135334345468854,12.31579614439004,11.268455224884447,-5.442020552940098,-3.2640341414913965,-9.613527242433944,-0.6189257152804635,-4.732073839893047,26.703833013602463,-2.5027947158884345,0.0,0.0,0.0,0.0,0.0,0.0,0.0,0.0,0.0,0.0,0.0,0.0,0.0,0.0,0.0,2046.1671592232137,1989.9040463061597,1963.4452336453273,2029.9905898778368,2049.0447158464003,1993.9231001931284,1975.7814281454034,2024.1182749734194,28.930726761793682,-4.044643211643914,-10.0,-0.7424123388812838
141,1.420000000000001,4.1978801548348,1.8111784463861467,2.435675609084653,0.4955209288710291,-0.4209458866934192,0.4095285009468865,0.6399609178995854,12.264645157974885,11.539381769522043,-5.448598538231534,-3.2812845650983316,-9.775261215278475,-0.6187914687348541,-5.386205375558006,26.99652066904079,0.786119210453684,0.0,0.0,0.0,0.0,0.0,0.0,0.0,0.0,0.0,0.0,0.0,0.0,0.0,0.0,0.0,2073.16904160587,2047.1674276489277,2012.5052782343441,2058.2249567191493,2072.933089841286,2051.695497836299,2017.4328368360625,2057.2816262386386,28.785531633612933,-4.391059360442485,-10.0,-0.7366291347634806
142,1.430000000000001,4.32024757495483,1.9278986988786173,2.3812857013474855,0.5096136157800368,-0.3988501715445849,0.37218784093381707,0.6653485660399939,12.207923984941106,11.802600757170081,-5.424438857690011,-3.6769337709114267,-9.86595911872454,-0.6176964229605086,-5.927235510469586,25.754240814757523,3.7500947370894266,0.0,0.0,0.0,0.0,0.0,0.0,0.0,0.0,0.0,0.0,0.0,0.0,0.0,0.0,0.0,2084.932275517986,2026.3343671009447,2039.4850786155932,2025.0614424860937,2071.7895536350975,2039.7606889381718,2028.8890257791625,2035.6158158363867,30.22065384132948,-4.28906983551897,-9.999999999999991,-0.695677636718724
143,1.440000000000001,4.442019276967152,2.0471815831502402,2.327283010685409,0.521660817633155,-0.37636986533158523,0.3323960567238285,0.6897308005961762,12.145384115146186,12.051269570553362,-5.371392528931144,-4.029677406269288,-9.916574438369048,-0.6142673545454863,-6.539845578430459,24.13029737838812,6.57380455638279,0.0,0.0,0.0,0.0,0.0,0.0,0.0,0.0,0.0,0.0,0.0,0.0,0.0,0.0,0.0,2078.3342431235483,2022.532856991334,2040.8270453313244,2014.3132780995663,2068.7094676413626,2032.1065304871756,2032.4647337984638,2022.1897134102785,32.22948481615281,-3.5043282291032436,-9.999999999934719,-0.7189257632454753
144,1.450000000000001,4.563126181041506,2.1688990212245827,2.2739714896731082,0.5317975154039873,-0.3532997527236402,0.29073140041341994,0.7126331034615304,12.074483569808972,12.290656871868642,-5.285203562177089,-4.1605858153218325,-9.944965969771689,-0.6067472701482624,-7.469998576299375,23.352542666220444,10.068115848971715,0.0,0.0,0.0,0.0,0.0,0.0,0.0,0.0,0.0,0.0,0.0,0.0,0.0,0.0,0.0,2106.6044966611453,2083.0707517904652,2079.95544063813,2077.1718720302206,2107.220603818845,2087.3269505603926,2081.456730154005,2080.4961908320392,34.39436628149381,-3.384562083110008,-9.915841884648998,-0.7415869549745349
145,1.460000000000001,4.683473266419374,2.292974363387752,2.22170883106031,0.5405570496336021,-0.3288584431193413,0.24852819329011566,0.7334057114725038,11.993270322715759,12.522685315019539,-5.161035011079069,-3.849907305875866,-9.961638323816981,-0.6008135651819578,-8.513363528324547,22.524270826117743,13.963107827485999,0.0,0.0,0.0,0.0,0.0,0.0,0.0,0.0,0.0,0.0,0.0,0.0,0.0,0.0,0.0,2146.8117924836924,2181.5282928772226,2118.254421032683,2168.5489752120316,2160.8867083801756,2175.099711549887,2132.658611328579,2161.018810899084,35.939162835106536,-3.9306837162665587,-9.999999999999998,-0.7336162526834641
146,1.470000000000001,4.802956019302524,2.4193203884632206,2.1708887860702566,0.5481784938509313,-0.3027980576123878,0.20657536663235904,0.7517581346990508,11.901700589381278,12.744012069465438,-4.996516717523292,-3.6531876279100515,-9.933760698341894,-0.5991269356901022,-9.51936582412749,21.24469970659071,18.004877914365558,0.0,0.0,0.0,0.0,0.0,0.0,0.0,0.0,0.0,0.0,0.0,0.0,0.0,0.0,0.0,2218.1220685856056,2256.4042428060084,2193.909534727765,2231.6263635399,2227.524564266913,2254.5723260174964,2200.7681928004736,2231.819398963479,36.26595436136412,-4.147736542579632,-9.999999999999902,-0.733913188404846
147,1.480000000000001,4.921477430459409,2.547791999890786,2.1219040986259925,0.5542762202457443,-0.2758536432529677,0.16410740323618428,0.7679527325149849,11.801248902053196,12.946326652378458,-4.794762902942529,-3.816306623324642,-9.957163694935668,-0.5978688257051235,-10.360821017373567,19.010321239173678,21.542714548186126,0.0,0.0,0.0,0.0,0.0,0.0,0.0,0.0,0.0,0.0,0.0,0.0,0.0,0.0,0.0,2293.065634371012,2281.149232598455,2262.603910687401,2265.57899240047,2288.6443521617743,2290.8465385945065,2260.171210346486,2273.2208128327193,36.41531818963126,-3.966652525647971,-9.999999999999998,-0.6840232601946783
148,1.490000000000001,5.038960105826679,2.678145362517574,2.075083624544461,0.5585666599880544,-0.24852584069274636,0.12046777940421478,0.7821289580262135,11.694381132865212,13.118683889416335,-4.565525333769759,-3.9890032048045927,-9.967837209823621,-0.5958194323042572,-10.918364975644579,15.66412006827278,23.889616348156117,0.0,0.0,0.0,0.0,0.0,0.0,0.0,0.0,0.0,0.0,0.0,0.0,0.0,0.0,0.0,2309.3408400197295,2289.6919206711677,2279.83007817618,2272.782555437687,2305.459520623132,2294.9710812490625,2276.1366470018406,2277.6585883928274,35.31188698264061,-3.630697518361181,-9.338160186243233,-0.6836479648475285
149,1.500000000000001,5.155348607259038,2.8100455418524874,2.030659848570804,0.5611239488172344,-0.22068674760008297,0.07612425846267049,0.7941299457714461,11.582594543708527,13.255092752671176,-4.316363083219779,-3.9874030234448874,-9.974466600094411,-0.5897796646015693,-11.363060267518321,11.930674271393826,25.647750583741136,0.0,0.0,0.0,0.0,0.0,0.0,0.0,0.0,0.0,0.0,0.0,0.0,0.0,0.0,0.0,2301.056454782169,2300.8778918497383,2279.7521377682137,2290.379481961962,2302.2658881953266,2300.0900583160483,2281.2797479232445,2289.4910121749886,22.950057535505326,-3.3045203550874898,-8.11068705652935,-0.707507111194902
150,1.5100000000000011,5.270608407290313,2.9431081115566005,1.98877558639599,0.562092407246024,-0.1925405083742078,0.03229558633004697,0.803702229345527,11.469301901711864,13.350534934109433,-4.059976688256645,-3.828319999648188,-9.6807624432558,-0.5830513315409478,-11.372817285414172,7.736080447660498,25.862855107306792,0.0,0.0,0.0,0.0,0.0,0.0,0.0,0.0,0.0,0.0,0.0,0.0,0.0,0.0,0.0,2233.2973710469814,2302.557473263676,2260.4769892100203,2242.499787386921,2246.7688530933196,2286.741291445794,2253.3456593469227,2246.037064492289,11.297268064401186,-3.375447386078882,-8.075579692712282,-0.7001011773330222
151,1.5200000000000011,5.384826651661926,3.0768484178331703,1.9491531537454652,0.5616608864407765,-0.1653747918223124,-0.009343416499513178,0.8106176209782295,11.378742242915612,13.388965051583996,-3.8793232150059085,-3.5897447951346013,-8.966154129393713,-0.5800916147505705,-8.26829477612101,1.9637843356150597,15.407264838677381,0.0,0.0,0.0,0.0,0.0,0.0,0.0,0.0,0.0,0.0,0.0,0.0,0.0,0.0,0.0,1763.0675466626976,1940.945972294684,1873.828272364231,1781.4770316703332,1772.9199032119745,1893.2526900203688,1835.8353064472096,1777.675305912014,12.182438770322557,-3.75644105751499,-8.782759540411561,-0.6989947102070224
152,1.5300000000000011,5.498299221063287,3.2107432291344393,1.9107949564415883,0.5600432246586693,-0.1396314797050546,-0.04877394739551693,0.8151538127523883,11.320261762900197,13.38518370337304,-3.8076762829646467,-3.5095381885541497,-8.579562535860811,-0.5801077464317449,-5.043323472483152,-1.4013686058849117,4.39606469198317,0.0,0.0,0.0,0.0,0.0,0.0,0.0,0.0,0.0,0.0,0.0,0.0,0.0,0.0,0.0,1243.5652334932415,1396.7089906616368,1326.8232697163105,1244.8290972093805,1228.789740580899,1358.740906879474,1291.4232891374916,1225.7526540375425,12.145756673731292,-3.5607013192338726,-8.569484050645631,-0.6533949418681277
153,1.5400000000000011,5.611247945740836,3.3445006517850673,1.8729413327458284,0.5571995264887301,-0.11427356961817703,-0.08780947305387304,0.8177773140711694,11.269281964330629,13.36417480397474,-3.762633754638156,-3.6496490820373633,-8.67124238709427,-0.5788021323511677,-5.138503865543598,-2.6797435284073856,4.563744365951639,0.0,0.0,0.0,0.0,0.0,0.0,0.0,0.0,0.0,0.0,0.0,0.0,0.0,0.0,0.0,1360.061101302157,1323.2726020450698,1298.997779837686,1316.2664488887917,1341.3690177516469,1346.3179386812317,1305.1995880705606,1312.3689499138918,10.097870929576548,-3.107379891788152,-8.111136990871694,-0.6328901002385859
154,1.5500000000000012,5.723683901625031,3.477983734386966,1.8355389716775452,0.5530759744253626,-0.08867966020796603,-0.12695174666388304,0.8186123248509177,11.217923065966492,13.330319859385888,-3.718245855568431,-3.6129881619342803,-8.6127277095584,-0.5745440442629447,-5.130630748222842,-3.955168659173225,4.322109991012013,0.0,0.0,0.0,0.0,0.0,0.0,0.0,0.0,0.0,0.0,0.0,0.0,0.0,0.0,0.0,1326.4273588011138,1345.1402788451635,1308.519636461751,1317.135765624741,1333.0704209047963,1338.5969407507632,1306.7084889533633,1319.1302068058392,9.157077248051655,-3.0537183180877316,-7.935950605996497,-0.6451336008466747
155,1.5600000000000012,5.835623775587971,3.6110743523675453,1.7985112837208808,0.5478827022631966,-0.06310603502714761,-0.16484467449268939,0.8177214722601633,11.170906832556966,13.286424359296236,-3.690464544562257,-3.377047128970648,-8.381324831460303,-0.5677369381805709,-4.537565312045189,-4.779153171359241,2.1469886158613782,0.0,0.0,0.0,0.0,0.0,0.0,0.0,0.0,0.0,0.0,0.0,0.0,0.0,0.0,0.0,1159.247952145765,1282.3943627616618,1204.8475183782082,1201.2506699899784,1180.1632301165732,1254.5650586368918,1196.9668200238598,1197.5032220391602,10.42845867153818,-3.3038746077073426,-8.216549615232731,-0.6551513920260842
156,1.5700000000000012,5.947115325777116,3.743688081252891,1.761679646625542,0.5417823830262019,-0.03779730148760807,-0.20104253211606643,0.8152454315867493,11.127905766476058,13.23518728336533,-3.6778159092049587,-3.2416958754493397,-8.182132801549116,-0.5636956816147088,-4.197627596226994,-5.447466158075898,0.8473888142854769,0.0,0.0,0.0,0.0,0.0,0.0,0.0,0.0,0.0,0.0,0.0,0.0,0.0,0.0,0.0,1107.7235614762728,1221.8103075415142,1145.197446945568,1133.9779337378045,1119.7587112561205,1205.7999444781985,1138.2315328434431,1134.279025000038,13.868819582328463,-3.2769064783682507,-8.286620788030111,-0.7273179665138652
157,1.5800000000000012,6.0581769475394065,3.8757416270427694,1.7249649389015773,0.5347096004980558,-0.012693233283255818,-0.23640923436053443,0.8111936876437664,11.084070757075162,13.17353070620571,-3.6643343741069416,-3.2911773464587957,-8.19550824938004,-0.5613155937109812,-4.437072249034557,-6.66203061453885,1.4263578533593169,0.0,0.0,0.0,0.0,0.0,0.0,0.0,0.0,0.0,0.0,0.0,0.0,0.0,0.0,0.0,1237.8162541361642,1237.9506469893574,1201.3565140460403,1216.4501484996454,1232.0948114114553,1251.673076004312,1205.1253097925908,1219.5778523471288,17.362942040889507,-2.964619965007234,-7.983575109999507,-0.6609803972489108
158,1.5900000000000012,6.168772056073331,4.007089339224417,1.688465031547422,0.5265547437682268,0.012475779658100273,-0.271504984185776,0.8055243635666032,11.033802779661077,13.09232056833079,-3.6323881622519623,-3.294725007466811,-8.22811162418954,-0.5651545765531196,-5.224588899807259,-8.971486372779225,3.7077465520471975,0.0,0.0,0.0,0.0,0.0,0.0,0.0,0.0,0.0,0.0,0.0,0.0,0.0,0.0,0.0,1431.5169853981988,1424.2118631205876,1371.4174995769094,1396.0292555038754,1438.851351928379,1435.8601254952032,1382.338317620131,1403.233241474078,32.217527446248894,-3.1404576769599957,-8.397191872224987,-0.5753651134194796
159,1.6000000000000012,6.278825272420654,4.137495569206045,1.6523960403164306,0.5174290812525233,0.0376668686017514,-0.30568567589983947,0.7983762398979358,10.97576340217979,12.984422990329044,-3.578495685605763,-3.145904801494817,-8.112891247726589,-0.5663485569165347,-5.978884885649904,-11.81450685788299,5.806362851077385,0.0,0.0,0.0,0.0,0.0,0.0,0.0,0.0,0.0,0.0,0.0,0.0,0.0,0.0,0.0,1558.4461705278932,1614.6319565847368,1557.4811489894714,1568.1767708854618,1580.07767420954,1609.91346384222,1566.6290005681556,1577.2268891666793,43.28663954925205,-3.2219706997493844,-8.146866553874075,-0.5754739850094676
160,1.6100000000000012,6.388189264653449,4.266506442519718,1.6171929729460202,0.5072981674728522,0.0629244973657268,-0.3389769707001963,0.7897997785799102,10.892165785590105,12.802598408067041,-3.447531714659438,-3.1617880616434317,-8.233183171394213,-0.5594724825828435,-9.229233631542044,-21.39817972787128,15.620010539041829,0.0,0.0,0.0,0.0,0.0,0.0,0.0,0.0,0.0,0.0,0.0,0.0,0.0,0.0,0.0,2139.5674007214425,2121.4771529826676,2110.2457692723274,2144.1026735657956,2159.0449280892008,2157.7753995203534,2143.71572299187,2167.6786471657438,44.487329054026695,-3.069314308316367,-7.578338056918437,-0.46638772824944047
161,1.6200000000000012,6.496579841344717,4.39321815640714,1.583703792136538,0.4960784074640985,0.0881649878054902,-0.37186025401832984,0.7796493442917559,10.78280331955256,12.524893671482294,-3.241699061076424,-3.202865214694552,-8.185944591682127,-0.5498605863495425,-11.445558918667942,-30.96602360271561,21.832521377198155,0.0,0.0,0.0,0.0,0.0,0.0,0.0,0.0,0.0,0.0,0.0,0.0,0.0,0.0,0.0,2481.8014814906396,2486.4013499282164,2481.5685109061033,2479.670836516512,2501.513287805705,2502.942372939422,2495.1833170736686,2501.6253266396475,44.2430138107313,-2.828077633921507,-6.8320868650613145,-0.37527215476184195
162,1.6300000000000012,6.603834323121849,4.516830539719574,1.5523658689670128,0.4841602857980881,0.11259366530512631,-0.40360828025632056,0.768122282125448,10.668514125470503,12.191464268032535,-3.0286722626714306,-3.1472835148320226,-7.910492412313745,-0.5329430079288489,-11.26537527003535,-34.836013720479286,20.39088639401232,0.0,0.0,0.0,0.0,0.0,0.0,0.0,0.0,0.0,0.0,0.0,0.0,0.0,0.0,0.0,2502.276205860851,2551.388834813938,2551.624886637675,2523.098322785884,2514.761472011957,2544.200353729826,2547.6673093272,2532.2713069924716,43.629278401962104,-2.3408635022115325,-6.0475549658685095,-0.3311392474136243
163,1.6400000000000012,6.709968558937961,4.636960149882583,1.5230425461161907,0.472006077089535,0.13555292326430812,-0.43332888435475325,0.7556862749639651,10.55937092444728,11.830793611292652,-2.8407843054039614,-3.0033885324235134,-7.42952779597163,-0.5080037773936678,-10.639239480731533,-37.04638099860347,17.50756336805237,0.0,0.0,0.0,0.0,0.0,0.0,0.0,0.0,0.0,0.0,0.0,0.0,0.0,0.0,0.0,2470.9876593162376,2562.7521092763704,2563.8444923490288,2512.8986117681648,2487.0969982083225,2547.3478347945456,2554.749747657663,2521.4023111414685,43.1502726001707,-1.8980227041086715,-5.295359485297398,-0.31050893716218003
164,1.6500000000000012,6.815045055979123,4.753390989160092,1.4954470718765165,0.4600326289030085,0.15670059367492545,-0.4602049503178707,0.7429847293110666,10.457072932388758,11.4528982042731,-2.683304263827298,-2.6919116848940416,-6.817643163972358,-0.4804995296658916,-9.935251887510432,-38.49093103938195,14.451424995849838,0.0,0.0,0.0,0.0,0.0,0.0,0.0,0.0,0.0,0.0,0.0,0.0,0.0,0.0,0.0,2432.1682551318836,2563.387109545351,2550.8111309136366,2495.1707250064824,2453.974612884227,2542.1332405338067,2542.3208911236748,2501.2936276592,42.39602156146287,-1.7147032055359697,-4.4057732389606805,-0.28528334379449916
165,1.6600000000000013,6.919132926536603,4.865976397661324,1.4692794446670474,0.4485564507104795,0.17596973291374665,-0.4837277010602858,0.7306430557058711,10.361601330540006,11.062244999570735,-2.554772842371094,-2.3215653663850295,-6.1462461236758275,-0.4546637321936851,-9.261203923836447,-39.61622949859667,11.66862049988504,0.0,0.0,0.0,0.0,0.0,0.0,0.0,0.0,0.0,0.0,0.0,0.0,0.0,0.0,0.0,2408.5209343630586,2559.133256059616,2537.692863228601,2479.731387971509,2432.0219884846397,2536.839991371478,2529.378884239446,2485.8669597094085,42.40234574542611,-1.4883251636684596,-4.370852371645035,-0.24493688936340716
166,1.6700000000000013,7.02230054918507,4.97461269896166,1.4442599191571202,0.4379660582274649,0.1930857719344108,-0.5039496727198011,0.7189842445302921,10.273012933697718,10.663996310819641,-2.4533946347232765,-2.0446017244213652,-5.3782363288062935,-0.4307892215175964,-8.584948446685559,-40.159188503759324,9.045277562177212,0.0,0.0,0.0,0.0,0.0,0.0,0.0,0.0,0.0,0.0,0.0,0.0,0.0,0.0,0.0,2382.9113776448417,2541.194682901781,2528.1664967515835,2446.0257957219833,2405.679444438092,2518.7701688194843,2514.415495197459,2457.2490968572383,42.626350368422486,-1.3992963565465135,-4.398920253234198,-0.22825369310114504
167,1.6800000000000013,7.124611355595126,5.0792269312945075,1.4201373124758547,0.42818783166614743,0.20837682572408361,-0.521474989479166,0.7080240918654546,10.190004679693029,10.25735478877159,-2.37458356405377,-1.7869465057856626,-4.943033214749769,-0.4069687588051788,-8.069606613529956,-41.059041404745145,6.9580666694952775,0.0,0.0,0.0,0.0,0.0,0.0,0.0,0.0,0.0,0.0,0.0,0.0,0.0,0.0,0.0,2408.1290283180783,2513.502317238726,2506.9968478393766,2468.6027979469827,2419.803401882244,2503.002704717103,2504.9962368030165,2469.8241641085874,41.25482245434351,-1.2415829057943641,-2.080202870051924,-0.2226652236302042
168,1.6900000000000013,7.2261168896196555,5.17972671552249,1.3967036308767804,0.41866513075975575,0.22274546774082574,-0.5371873717330734,0.6975196717923806,10.11192490296164,9.841061085606926,-2.3153061348211526,-1.6113697728094711,-4.704881722585494,-0.38390027918852404,-7.580688419624337,-42.013337712701215,5.07124762478961,0.0,0.0,0.0,0.0,0.0,0.0,0.0,0.0,0.0,0.0,0.0,0.0,0.0,0.0,0.0,2436.681470939197,2499.0466525195766,2500.190644812379,2486.9528988694697,2443.349968455812,2494.043768901944,2500.057261652383,2486.8483339601,40.48562318514702,-1.1181245658843346,-0.4396422379363809,-0.23618555714726533
169,1.7000000000000013,7.326872072609451,5.276063275841177,1.3737561303474983,0.4104976186152737,0.2348800776448953,-0.5505619597517687,0.6878986718340202,10.040043482028345,9.42699472744278,-2.2775371287319914,-1.4391894519770545,-3.525938001489234,-0.36283718703159007,-6.972948214665209,-41.33810914608205,2.9529600430211467,0.0,0.0,0.0,0.0,0.0,0.0,0.0,0.0,0.0,0.0,0.0,0.0,0.0,0.0,0.0,2327.274871659224,2528.920935627753,2530.4613713067133,2374.8165477926555,2366.000891249489,2491.6430987573535,2498.398427800725,2405.068184175674,40.49151245520182,-0.7502746632932671,0.21681599440286203,-0.2234713847591793
170,1.7100000000000013,7.4269318332033825,5.36828203885665,1.3510954879575354,0.40546082853669496,0.24278927749774862,-0.5605723736778538,0.6800099242831937,9.972340915982496,9.017281867415177,-2.2569197705155046,-1.2898386102048456,-2.1732091947643872,-0.3461579120195807,-6.681749850619312,-40.905426234850495,1.4889838490153018,0.0,0.0,0.0,0.0,0.0,0.0,0.0,0.0,0.0,0.0,0.0,0.0,0.0,0.0,0.0,2285.5925603345813,2526.988553800872,2526.5128616401753,2325.6952919245355,2322.6757444870627,2492.586365394649,2496.6889039322177,2355.2001705656444,40.57282034752322,-0.4146221500760349,0.8701377432806304,-0.2018627931564668
171,1.7200000000000013,7.526321647736436,5.456407232019762,1.328583075116095,0.40343946313041185,0.24691497413692653,-0.5673520602259637,0.6740780629076727,9.905586603116694,8.607569910412243,-2.246884473020076,-1.0302831676601167,-1.133567409651742,-0.33173472550408367,-6.693515481657641,-41.01489795227842,0.6710728822585388,0.0,0.0,0.0,0.0,0.0,0.0,0.0,0.0,0.0,0.0,0.0,0.0,0.0,0.0,0.0,2305.200600464329,2508.411438503976,2497.732236164263,2354.6964417381996,2332.5699711709403,2483.9569953003434,2483.6677629937863,2368.9880399746125,40.416165574506756,-0.3095122099314315,1.512724035570241,-0.2028306745719117
172,1.7300000000000013,7.625040415000567,5.5404294255904825,1.3061381216457966,0.4037059018394462,0.24832717706980792,-0.5712541897076902,0.6700923881749069,9.837916269607996,8.196745468281199,-2.2427817913583405,-0.7374859050280573,-0.2559555434913531,-0.31743905261170524,-6.8389694854893435,-41.09947706509409,0.2471348891321945,0.0,0.0,0.0,0.0,0.0,0.0,0.0,0.0,0.0,0.0,0.0,0.0,0.0,0.0,0.0,2319.7802161501795,2498.3300513548093,2483.618654791336,2375.363803033399,2344.978958230411,2475.8427718880657,2472.537740603477,2386.7214404402494,40.3620642282327,-0.19306353839951895,1.8208447116967021,-0.1901237288471898
173,1.7400000000000013,7.723074189944326,5.620347183426947,1.2837180542680096,0.4059572414747223,0.2474390416214064,-0.572678448032695,0.6678413239195204,9.76846679875427,7.787156159711528,-2.2414442151837695,-0.5381747585314701,0.5188203272638484,-0.3045036232910348,-7.05393707636226,-40.87544221924588,0.09842300142848259,0.0,0.0,0.0,0.0,0.0,0.0,0.0,0.0,0.0,0.0,0.0,0.0,0.0,0.0,0.0,2329.9269972477414,2482.6891616935645,2474.545352125986,2373.7508257181726,2350.3419492559547,2463.792773008207,2461.790195959467,2386.066748224603,41.07236690480569,-0.1213638228671707,2.043983122346094,-0.18762701477701207
174,1.7500000000000013,7.8204005763160405,5.696179440925788,1.2613098719912466,0.409853166734368,0.24464069585592385,-0.5721442279730343,0.6669499936622536,9.696282809108393,7.379657045413242,-2.2399491579955475,-0.37468268924663123,1.0856885999017256,-0.2922128568699754,-7.365736008544843,-40.654646508467174,0.2298937708840043,0.0,0.0,0.0,0.0,0.0,0.0,0.0,0.0,0.0,0.0,0.0,0.0,0.0,0.0,0.0,2348.0650075415356,2462.3274054944127,2459.7929000845747,2385.524884063937,2361.9341075120383,2449.4308331910906,2451.9992080297966,2392.929046288002,42.02176053512999,-0.05365349016764255,2.120189137139138,-0.18599532060478624
175,1.7600000000000013,7.916985274606767,5.767928788018555,1.2389319615094525,0.4149210216523712,0.24045654756955265,-0.570135540453507,0.6670582133769671,9.619871836165832,6.969655579144004,-2.234826505143404,-0.2548178835952773,1.503941206710272,-0.28072253468871355,-7.844265148374774,-41.06725294321922,0.7213090141573453,0.0,0.0,0.0,0.0,0.0,0.0,0.0,0.0,0.0,0.0,0.0,0.0,0.0,0.0,0.0,2384.8384845129854,2467.910779859781,2469.05779954759,2415.0915561802476,2395.9673630132766,2459.673889877884,2464.358044154993,2421.461178447951,42.82382306839875,-0.016573761695057483,2.080916039125689,-0.20294416636396412
176,1.7700000000000014,8.012779580754358,5.83555115062263,1.2166349024727652,0.4207679763496946,0.23531501759289464,-0.5670441204938054,0.6678638468933961,9.538062804749536,6.553988049129404,-2.223439084672729,-0.1587714563517389,1.771770468466198,-0.2702730842579668,-8.415030418239766,-41.67750214191113,1.428090760030809,0.0,0.0,0.0,0.0,0.0,0.0,0.0,0.0,0.0,0.0,0.0,0.0,0.0,0.0,0.0,2427.5530388030998,2482.4661092255733,2485.3623069694568,2452.5927851130614,2435.2294558239905,2478.194466796539,2483.9322725738834,2456.407456842268,43.55851488330252,-0.026406915574996984,1.9701827073984468,-0.22900678973663519
177,1.7800000000000014,8.107727049656962,5.898990750964041,1.1944885822283267,0.4270154235691275,0.22963822774620546,-0.5632319756074498,0.6690992856407708,9.450488054724067,6.133359166772541,-2.2045536884096664,-0.09088381494057243,1.9052979737250344,-0.26219253272620646,-8.99602338689931,-42.12086110458291,2.2109455252992127,0.0,0.0,0.0,0.0,0.0,0.0,0.0,0.0,0.0,0.0,0.0,0.0,0.0,0.0,0.0,2465.933083337802,2495.580687919993,2497.7435084867884,2483.474212020161,2469.98704265108,2494.4391370457606,2498.3275008746627,2484.811842838709,44.259663658949194,-0.05256156000724373,1.802283332781124,-0.24572769885382542
178,1.7900000000000014,8.201769711686056,5.958204651276817,1.1725711639355147,0.43336473961729205,0.22376681530138995,-0.5590487961925036,0.6705131305962793,9.357102536678006,5.709001852163669,-2.1775951467260666,-0.06024105527000346,1.9322867885444752,-0.25754901659216856,-9.576566591668723,-42.46174531449398,3.033470944847405,0.0,0.0,0.0,0.0,0.0,0.0,0.0,0.0,0.0,0.0,0.0,0.0,0.0,0.0,0.0,2500.5112476229697,2508.76384950302,2510.1560987564403,2508.8440632000525,2501.583160580557,2510.2613165478438,2511.8974958706053,2508.8761193671053,44.839623835479564,-0.0881796129384661,1.5895223610739102,-0.2591444483391645
179,1.8000000000000014,8.294849557917715,6.013159455583843,1.1509647669941165,0.43959403727022295,0.21796152412237751,-0.5548001197847349,0.6718978222062936,9.257937320552594,5.281623055821314,-2.1423419763921223,-0.0561060174872643,1.874148892104537,-0.25560774869469954,-10.150395972276627,-42.74691898774563,3.8625845399065106,0.0,0.0,0.0,0.0,0.0,0.0,0.0,0.0,0.0,0.0,0.0,0.0,0.0,0.0,0.0,2530.579671277228,2522.137062990066,2523.663169651367,2532.5497988146817,2529.4589120284113,2525.5338608466946,2526.556218442673,2531.500908934112,45.21276595726257,-0.23614267888689863,1.5068672203093187,-0.28248273094294096
180,1.8100000000000014,8.386909813799795,6.063829644866671,1.1297512755618022,0.44552759516384316,0.21243630026818447,-0.5507295162190194,0.6731069604758618,9.153239121460365,4.852249941333742,-2.0990994199464486,-0.070632001585345,1.7484940402498022,-0.2555309951547731,-10.69028834432828,-42.91497111252873,4.639595607457636,0.0,0.0,0.0,0.0,0.0,0.0,0.0,0.0,0.0,0.0,0.0,0.0,0.0,0.0,0.0,2554.701723489812,2533.5429883395955,2535.082878672794,2552.2834511122055,2551.8466930884283,2538.2392313677256,2538.805446721916,2550.174962127537,45.21276595744609,-0.1375128392436594,1.7734464224600257,-0.2716155396311661
181,1.8200000000000014,8.4778974881866,6.110203160172163,1.1090065927275652,0.45115674320760935,0.20718491141388332,-0.54703912214437,0.6740031189721912,9.043490168376735,4.422560392062405,-2.04874614255319,-0.15050795566116978,1.6437106533096597,-0.25777139215777634,-11.18314841827761,-42.89656424998167,5.311893036911819,0.0,0.0,0.0,0.0,0.0,0.0,0.0,0.0,0.0,0.0,0.0,0.0,0.0,0.0,0.0,2569.14612931211,2544.0684844390403,2548.813121677073,2557.040766010238,2565.817544688726,2548.6217274963924,2549.487761246613,2557.3983806486003,45.212765950423545,-0.06881661846295382,1.906172216724345,-0.2629426912965787
182,1.8300000000000014,8.567765133150367,6.152290572631535,1.0887949982848038,0.45673142269123534,0.20192987048139915,-0.5434728133463073,0.6747281201248806,8.929338098404438,3.995534266191981,-1.9926759916275707,-0.13901032595355756,1.7045669970134385,-0.25974834739513253,-11.604289851188554,-42.53368021739545,5.85018099031287,0.0,0.0,0.0,0.0,0.0,0.0,0.0,0.0,0.0,0.0,0.0,0.0,0.0,0.0,0.0,2552.8975709110605,2559.6673635898283,2558.767646573576,2549.8726358691415,2556.311111054158,2556.1925023212493,2556.6279160572158,2552.2291821288645,45.03214744004657,-0.31278532104949064,1.691764292183614,-0.22441944063308825
183,1.8400000000000014,8.656470243574391,6.1901268861878425,1.069171313380925,0.46246516689811823,0.19645343942303858,-0.5396061700984296,0.6755421502293243,8.81098340760272,3.572408567225551,-1.9311242070351564,-0.1037013456970559,1.792463277983781,-0.2605213248731784,-12.024600626876492,-42.12702060190354,6.410424431813944,0.0,0.0,0.0,0.0,0.0,0.0,0.0,0.0,0.0,0.0,0.0,0.0,0.0,0.0,0.0,2547.149002898071,2563.960904250315,2560.4849772271014,2549.71084584437,2550.3282380211936,2560.716461419217,2559.253112333813,2551.0482728119296,44.939201861485515,-0.4504227225245665,1.5092503798148789,-0.2049574543125004
184,1.8500000000000014,8.743971889028549,6.2237573179191275,1.0501898092605173,0.46825662880337043,0.19079817297414498,-0.5357622526974881,0.6762326488390985,8.68868395433882,3.154609946993573,-1.8643376827163605,-0.20762790062016068,1.7449073404715556,-0.25792782656260826,-12.415090407550622,-41.54742586919324,6.908889826813036,0.0,0.0,0.0,0.0,0.0,0.0,0.0,0.0,0.0,0.0,0.0,0.0,0.0,0.0,0.0,2555.8170359809615,2540.0818820358313,2554.7982385128153,2551.131624661834,2550.607243792493,2544.708377574721,2554.2325719179435,2551.368791007369,44.87170205191425,-0.5685786991544486,1.2934599218347065,-0.1921435801932707
185,1.8600000000000014,8.830230143877221,6.2532367464368335,1.0319007538747096,0.47389360737716985,0.18512493903230293,-0.5324327236387965,0.6765123802517674,8.562251384919836,2.7421012698680345,-1.7926983097817768,-0.3215000377676761,1.6414839859282622,-0.2529179952953309,-12.840340879243684,-41.039373146682486,7.372906958776682,0.0,0.0,0.0,0.0,0.0,0.0,0.0,0.0,0.0,0.0,0.0,0.0,0.0,0.0,0.0,2558.7123870254363,2529.208667223287,2550.149867716857,2552.7504968889552,2553.3522847115114,2534.4337061881383,2550.354790553086,2552.2067264639536,44.771443734518826,-0.623263177732253,1.0547331157383655,-0.19792041259284815
186,1.8700000000000014,8.91520238028731,6.278615489971183,1.014350168983217,0.47923979824775703,0.17958758467595382,-0.5297716186734264,0.6763279879273397,8.431454224427213,2.3344088904517073,-1.7167596975792268,-0.4375194609919207,1.4885084323086626,-0.24682758027917154,-13.28247056853371,-40.57263369799235,7.769458853664313,0.0,0.0,0.0,0.0,0.0,0.0,0.0,0.0,0.0,0.0,0.0,0.0,0.0,0.0,0.0,2560.0785414395614,2522.7382949946013,2545.1097733296965,2555.0102120188158,2554.18787891021,2528.699379120444,2546.424481929719,2553.3434551851337,44.52443087925603,-0.7095848287667601,0.7841484428101977,-0.18745240228986818
187,1.8800000000000014,8.998844750357419,6.299940915417055,0.9975768167767431,0.48417000326006665,0.1743662030428578,-0.5278381231498367,0.6756942732695178,8.29629778774632,1.9314296290297925,-1.6374139356170527,-0.5234784009914633,1.2981954554951485,-0.2414349250686907,-13.712927124860386,-40.10732108235637,8.067669473301509,0.0,0.0,0.0,0.0,0.0,0.0,0.0,0.0,0.0,0.0,0.0,0.0,0.0,0.0,0.0,2559.553116318966,2519.2497552727514,2537.054479937364,2555.82560423635,2553.7485827103683,2525.143256978396,2539.727930268235,2552.630016951628,44.22143802694055,-0.8123680516485756,0.465260501094511,-0.1705340119344954
188,1.8900000000000015,9.081115481974322,6.317262718701446,0.9816085030964313,0.488582941474612,0.16961704029406804,-0.5266811341642501,0.6746286029048544,8.157213573401721,1.5337999899118742,-1.555989559574111,-0.6112572186218819,1.0727066182723795,-0.2360084091725516,-14.086784642950434,-39.55699163911564,8.217397579007635,0.0,0.0,0.0,0.0,0.0,0.0,0.0,0.0,0.0,0.0,0.0,0.0,0.0,0.0,0.0,2554.9011090164117,2509.5136069077535,2527.5485021154855,2552.353486650967,2547.977584609205,2516.0482840329814,2530.63975485223,2548.4494350253713,44.024576089043386,-0.886857852498044,0.1541604290229644,-0.1718985942128536
189,1.9000000000000015,9.161977669916192,6.330636402916471,0.9664592205670572,0.4923846922743137,0.16545422612567842,-0.526419066956018,0.6731011661082141,8.014655140581468,1.141797971470735,-1.473820699543886,-0.7064938840607465,0.8061554146625541,-0.22951626297330885,-14.418509831426007,-39.003300438560814,8.236482579552451,0.0,0.0,0.0,0.0,0.0,0.0,0.0,0.0,0.0,0.0,0.0,0.0,0.0,0.0,0.0,2549.097705811669,2496.480255996703,2516.9164832255365,2547.4739385386215,2540.9279252887804,2504.1337880871833,2520.6315612259846,2542.7937344536535,43.87188066006807,-0.9172566645404132,-0.15358632325484,-0.17753422461051008
190,1.9100000000000015,9.241397425003846,6.340114200108553,0.9521314814916482,0.4954949833381891,0.16197995169751997,-0.5271308708987731,0.6711037637208258,7.8687338549623185,0.7544017928008722,-1.3918155592914245,-0.7912624584528938,0.5207178870506004,-0.22322043944209224,-14.749347891874542,-38.59193479823186,8.179085733483138,0.0,0.0,0.0,0.0,0.0,0.0,0.0,0.0,0.0,0.0,0.0,0.0,0.0,0.0,0.0,2545.0444781038063,2490.017101498914,2508.498032285155,2543.2697775335014,2537.136354553985,2497.8118666272285,2512.798276981899,2538.184072254253,43.80626941289023,-0.9079575182509292,-0.39405710021865165,-0.18733915782688773
191,1.9200000000000015,9.31934166563732,6.345736231324616,0.9386192894941354,0.49786524140841976,0.15928576517884374,-0.5287948484040893,0.6686809812683641,7.7195925488750845,0.37048387142130224,-1.310871460829841,-0.8498357851462855,0.2256012023779234,-0.21800494048335006,-15.058259674820107,-38.28266297527805,8.02781790261009,0.0,0.0,0.0,0.0,0.0,0.0,0.0,0.0,0.0,0.0,0.0,0.0,0.0,0.0,0.0,2540.8630414029285,2487.0162798433635,2500.975553911918,2540.185116624616,2533.5172220688037,2494.3542075848054,2506.084891901996,2534.4572756082734,43.80842257458903,-0.86939732380674,-0.5811348625270805,-0.19763174496490252
192,1.9300000000000015,9.39577909395774,6.347531212941664,0.9259079059732334,0.4994943070967724,0.15741953212148596,-0.5312967821402257,0.6659191072285051,7.567405918477999,-0.011214461316908106,-1.231774911319462,-0.876219239984955,-0.04478228550265508,-0.2142271524434735,-15.349996026226442,-38.10698133185026,7.807365681605338,0.0,0.0,0.0,0.0,0.0,0.0,0.0,0.0,0.0,0.0,0.0,0.0,0.0,0.0,0.0,2536.350597390671,2489.7475975535276,2497.8178804443164,2537.193793562095,2530.6096135630896,2495.638062430789,2502.893838110571,2531.772612763779,43.86085802343086,-0.8309877237366956,-0.7358660256878581,-0.20810133937119582
193,1.9400000000000015,9.470680324774499,6.345515194475818,0.9139755251695465,0.5004418601553535,0.15635524055075542,-0.5344539759951036,0.6629252830444697,7.412400570597368,-0.39189032379145083,-1.1551724488605282,-0.8720488891584577,-0.2786143750524212,-0.21191258644455313,-15.616197036314894,-38.04399398531083,7.52848980442633,0.0,0.0,0.0,0.0,0.0,0.0,0.0,0.0,0.0,0.0,0.0,0.0,0.0,0.0,0.0,2532.684528743669,2495.4490612424415,2497.8280632177684,2535.1072482729073,2528.4951764539574,2499.8800608113984,2502.69304180518,2530.143812146273,43.96985567679819,-0.7707708427835298,-0.8557527327627897,-0.2212157481986778
194,1.9500000000000015,9.544018631496112,6.339693362046873,0.9027944155266066,0.5007861628049092,0.15603029732532966,-0.5380992958287624,0.6597855055154627,7.2548768546831175,-0.7725163961053263,-1.08160529963691,-0.85237685312005,-0.47793142168906516,-0.21094568861882296,-15.851032912209462,-38.07068015925963,7.20061083247403,0.0,0.0,0.0,0.0,0.0,0.0,0.0,0.0,0.0,0.0,0.0,0.0,0.0,0.0,0.0,2531.2484273639398,2501.6390357290024,2500.041612944171,2533.945817650869,2528.023525991466,2505.1720421673804,2504.4887466499977,2529.590107408677,44.12412464257357,-0.732199193295124,-0.9337615960468727,-0.23037650096555673
195,1.9600000000000015,9.615770313456496,6.33006175437372,0.8923320735285634,0.5006061636663638,0.15637373461334028,-0.5420864989234052,0.6565690761125501,7.095127091096494,-1.153978426996588,-1.011477785817742,-0.8133433761753793,-0.642429354385378,-0.21140576346301165,-16.05738625800157,-38.18374038832584,6.839195446648905,0.0,0.0,0.0,0.0,0.0,0.0,0.0,0.0,0.0,0.0,0.0,0.0,0.0,0.0,0.0,2531.4852862871235,2509.5424987553524,2503.749315703049,2534.3382274139376,2529.4136319170634,2512.021271006063,2507.913714432942,2530.460752710944,44.315714703608776,-0.737974979922044,-0.9713620694434615,-0.23150262576271605
